tick,time,measurement_time,pos_x,pos_y,pos_z,vel_x,vel_y,vel_z,accel_x,accel_y,accel_z,speed_kph,forward_speed_kph,lateral_speed_mps,yaw_rate_rad_s,lateral_accel_mps2,slip_angle_deg,slip_angle_valid,airborne,grounded_wheels,engine_rpm,engine_torque,drivetrain_torque,gear,shifting,nitrous_active,nitrous_seconds,raw_steering,raw_throttle,raw_brake,raw_handbrake,raw_nitrous,final_steering,final_throttle,final_brake,final_handbrake,final_nitrous,handling,assist_yaw_torque,average_longitudinal_slip
52,1.0399996,0.0399996042,-0.000796806242,0.7253231,0.002812881,-0.06275558,-0.000131777837,-0.0010763983,-6.20022869,-0.002264815,-0.0123806065,0.2205168,-0.002923077,-0.06275654,-0.06242658,-6.20023775,-88.98255,0,0,4,6818.18164,-9.607271,-10.7560234,1,1,0,0,0,1,0,0,0,0,0.13,0.78,0,0,Grip,0,0.0386996232
53,1.05999959,0.0599995852,-0.000162517463,0.7253201,0.00278550759,0.04194166,-0.000155654852,-0.00143399544,5.23486233,-0.00119385077,-0.0178798568,0.225953788,-0.00365233,0.0419421867,0.0673958957,5.23486853,87.92724,0,0,4,6436.36328,27.5435524,30.8369675,1,1,0,0,0,1,0,0,0,0,0.26,0.559999943,0,0,Grip,0,0.04830727
54,1.07999957,0.0799995661,-0.0005756194,0.725316048,0.002819553,-0.0284848921,-0.000182257674,0.00184165128,-3.52132773,-0.00133014109,0.163782343,0.151079237,-0.005104737,-0.028482344,-0.08596001,-3.52110362,-86.02199,0,0,4,6054.545,71.15302,79.66087,1,1,0,0,0,1,0,0,0,0,0.39,0.339999944,0,0,Grip,0,0.0511993
55,1.09999955,0.09999955,-0.0004729088,0.725311,0.00296902657,0.01004764,-0.0001884094,0.007968219,1.92662668,-0.000307586015,0.3063284,0.102761805,0.00677051349,0.0100454474,0.08139844,1.92654121,51.2178764,0,0,4,5672.72656,122.515717,137.16507,1,1,0,0,0,1,0,0,0,0,0.52,0.119999945,0,0,Grip,0,0.0249506738
56,1.11999953,0.119999528,-0.000610795571,0.7253048,0.00328495353,-0.0107532451,-0.000177952956,0.016692955,-1.04004431,0.000522821967,0.4362368,0.0461703427,0.0286977217,-0.0107331555,-0.0739927739,-1.03951955,-32.563797,0,0,4,5290.908,182.299744,204.097534,1,1,0,0,0,1,0,0,0,0,0.65,0,0,0,Grip,0,0.0045939316
57,1.13999951,0.139999509,-0.000507529359,0.7252978,0.00382508337,0.009557895,-0.000150247884,0.0284011234,1.015557,0.00138525362,0.585408449,0.07148685,0.0601428747,0.009553121,0.06850656,1.01545835,18.5291538,0,0,4,4909.09,250.326279,280.2581,1,1,0,0,0,1,0,0,0,0,0.78,0,0,0,Grip,0,0.006056008
58,1.15999949,0.15999949,-0.000731869,0.725277543,0.005948141,-0.0153707732,-0.00010852643,0.11244908,-1.2464335,0.00208607269,4.202398,0.107879914,0.102251031,-0.0152580179,-0.0585664734,-1.24222,-7.719358,0,0,4,5290.908,266.9287,2490.38086,1,0,0,0,0,1,0,0,0,0,0.909999967,0,0,0,Grip,0,0.6123768
59,1.17999947,0.179999471,-0.0005995131,0.725261569,0.008479573,0.0105241872,9.163527E-05,0.132718921,1.29474807,0.0100080855,1.01349211,0.408581227,0.404871464,0.0105346823,0.0461798571,1.2948283,4.535034,0,0,4,4909.09,328.4696,3064.54248,1,0,0,0,0,1,0,0,0,0,1,0,0,0,Grip,0,0.005728726
60,1.19999945,0.199999452,-0.000711312,0.725237846,0.0126369409,-0.00771945436,0.000253724837,0.217809841,-0.912182033,0.008104478,4.254546,0.479288042,0.4777829,-0.00754817249,-0.03537024,-0.9088356,-1.98382652,0,0,4,4527.27148,359.918121,3357.94971,1,0,0,0,0,1,0,0,0,0,1,0,0,0,Grip,0,1.71238136
61,1.21999943,0.219999433,-0.0007283886,0.7252182,0.0178025067,0.000483214273,0.000538580643,0.268749774,0.410133421,0.0142427906,2.54699659,0.784608245,0.78413403,0.0005730009,0.0226120744,0.410984784,0.122115076,0,0,4,4145.453,385.678558,3598.28833,1,0,0,0,0,1,0,0,0,0,1,0,0,0,Grip,0,0.006529586
62,1.23999941,0.239999413,-0.0006792023,0.7251967,0.0246709213,0.00290907361,0.000819846755,0.356317937,0.121292964,0.0140633062,4.37840843,0.9675027,0.9674954,0.00312524918,-0.0136210425,0.123949528,0.5023881,0,0,4,3763.635,384.754852,3589.67041,1,0,0,0,0,1,0,0,0,0,1,0,0,0,Grip,0,1.93438447
63,1.25999939,0.2599994,-0.000799677859,0.7251842,0.03266387,-0.0065695066,0.00119879551,0.412067473,-0.473929018,0.0189474374,2.78747678,1.28279066,1.28273642,-0.006380851,0.007434716,-0.472652167,-0.886930048,0,0,4,3381.817,368.410767,3437.184,1,0,0,0,0,1,0,0,0,0,1,0,0,0,Grip,0,0.006051829
64,1.27999938,0.279999375,-0.000708625943,0.725173652,0.0424891561,0.00580100669,0.0015513649,0.5053313,0.6185257,0.01762847,4.66319036,1.48363769,1.4834547,0.00607796572,-0.00450272067,0.6210812,0.688968539,0,0,4,2999.99878,339.309753,3165.67847,1,0,0,0,0,1,0,0,0,0,1,0,0,0,Grip,0,1.043258
65,1.29999936,0.299999356,-0.0008130705,0.72518146,0.05296718,-0.005895759,0.00200572819,0.5348319,-0.5848383,0.0227181651,1.47503018,1.819321,1.81918585,-0.00563369133,0.00289862743,-0.5841152,-0.6033881,0,0,4,2618.18066,303.891571,2835.23535,1,0,0,0,0,1,0,0,0,0,1,0,0,0,Grip,0,0.00487984065
66,1.31999934,0.319999337,-0.0007599382,0.7251911,0.065277,0.00352249434,0.00230260449,0.627667964,0.470912665,0.014843815,4.641804,1.92552519,1.92541444,0.00385262864,-0.00179396791,0.4733537,0.351620257,0,0,4,2236.36255,267.8997,2499.4397,1,0,0,0,0,1,0,0,0,0,1,0,0,0,Grip,0,0.04339785
67,1.33999932,0.339999318,-0.000817960652,0.725209355,0.0791895762,-0.00321186986,0.00270869234,0.70762223,-0.336718231,0.020304393,3.99771333,2.25965548,2.25961113,-0.00285555632,0.00112078839,-0.334705174,-0.231176749,0,0,4,1854.54443,236.016769,2201.97974,1,0,0,0,0,1,0,0,0,0,1,0,0,0,Grip,0,0.03769908
68,1.3599993,0.3599993,-0.0008062185,0.725239336,0.09454283,0.0009666999,0.00314676017,0.778612256,0.208928481,0.0219033919,3.54950142,2.54748487,2.54746366,0.00136904616,-0.0006599368,0.210762322,0.100730278,0,0,4,1472.72632,211.870392,1976.69983,1,0,0,0,0,1,0,0,0,0,1,0,0,0,Grip,0,0.03361462
69,1.37999928,0.37999928,-0.0008325683,0.7252817,0.11124377,-0.001364074,0.00356297661,0.8445569,-0.1165387,0.020810822,3.29723358,2.803029,2.80302453,-0.000933419855,0.000341736537,-0.114857644,-0.06331622,0,0,4,1090.9082,198.396545,1850.99219,1,0,0,0,0,1,0,0,0,0,1,0,0,0,Grip,0,0.031420745
70,1.39999926,0.399999261,-0.000839294633,0.725335836,0.129277527,-0.000203818825,0.00392618123,0.9097656,0.05801276,0.0181602314,3.26043367,3.040436,3.040434,0.000263069931,-0.000164016252,0.0596856028,0.0165658072,0,0,4,900,196.560013,1833.85767,1,0,0,0,0,1,0,0,0,0,1,0,0,0,Grip,0,0.03116377
71,1.41999924,0.419999242,-0.000854497252,0.7253999,0.148640275,-0.000739636656,0.00422891136,0.974865139,-0.02679089,0.0151365064,3.254977,3.27518678,3.275186,-0.000240598863,6.46121E-05,-0.0251250658,-0.0141391438,0,0,4,900,196.560013,1833.85767,1,0,0,0,0,1,0,0,0,0,1,0,0,0,Grip,0,0.031225875
72,1.43999922,0.439999223,-0.0008660495,0.72547245,0.16932787,-0.000537709857,0.004469305,1.03986168,0.01009634,0.0120196724,3.24982715,3.50954843,3.50954676,-4.83979238E-06,-2.714326E-05,0.0117612453,-0.000266641844,0,0,4,900,196.560013,1833.85767,1,0,0,0,0,1,0,0,0,0,1,0,0,0,Grip,0,0.0313022919
73,1.4599992,0.4599992,-0.000878828,0.7255521,0.191335455,-0.0006279726,0.00464712363,1.10473228,-0.004513137,0.008890941,3.2435298,3.74353719,3.743534,-6.199913E-05,6.08978826E-06,-0.002851866,-0.00321520376,0,0,4,900,196.560013,1833.85767,1,0,0,0,0,1,0,0,0,0,1,0,0,0,Grip,0,0.0313880369
74,1.47999918,0.479999185,-0.0008912635,0.7256371,0.214658782,-0.000619689643,0.00476288935,1.16951263,0.0004141475,0.005788286,3.23901772,3.97707176,3.977067,-2.043799E-05,-4.09472068E-06,0.00207336736,-0.00100118865,0,0,4,900,196.560013,1833.85767,1,0,0,0,0,1,0,0,0,0,1,0,0,0,Grip,0,0.0314793065
75,1.49999917,0.499999166,-0.0009039571,0.725725949,0.239293978,-0.0006447953,0.004819268,1.23422706,-0.00125528313,0.00281892717,3.23572159,4.210281,4.210273,-1.23673235E-05,-9.04034664E-07,0.0004023175,-0.000574071251,0,0,4,900,196.560013,1833.85767,1,0,0,0,0,1,0,0,0,0,1,0,0,0,Grip,0,0.03157208
76,1.51999915,0.519999146,-0.000916855759,0.725817144,0.265237421,-0.000663733168,0.00482029561,1.29888511,-0.0009468931,5.13857231E-05,3.23290229,4.44325161,4.44324064,1.85589306E-06,-1.32900107E-06,0.00070937007,8.185962E-05,0,0,4,900,196.560013,1833.85767,1,0,0,0,0,1,0,0,0,0,1,0,0,0,Grip,0,0.0316632837
77,1.53999913,0.5399991,-0.0009300701,0.7259093,0.292485833,-0.0006867018,0.00477123074,1.363495,-0.00114843133,-0.00245324336,3.23049426,4.67601871,4.676004,1.20181357E-05,-9.568849E-07,0.000506690354,0.000504979049,0,0,4,900,196.560013,1833.85767,1,0,0,0,0,1,0,0,0,0,1,0,0,0,Grip,0,0.0317505226
78,1.55999911,0.5599991,-0.000943666266,0.726001143,0.32103616,-0.0007112037,0.00467831455,1.42806423,-0.00122509664,-0.00464580953,3.22846174,4.90861225,4.908593,2.06238474E-05,-7.302633E-07,0.000429068285,0.0008273968,0,0,4,900,196.560013,1833.85767,1,0,0,0,0,1,0,0,0,0,1,0,0,0,Grip,0,0.0318321362
79,1.57999909,0.5799991,-0.0009577106,0.726091743,0.350885659,-0.000737537455,0.004548458,1.49259865,-0.00131668639,-0.00649283174,3.22672129,5.1410594,5.141035,2.73794285E-05,-5.80553262E-07,0.0003366666,0.00105093338,0,0,4,900,196.560013,1833.85767,1,0,0,0,0,1,0,0,0,0,1,0,0,0,Grip,0,0.0319068059
80,1.59999907,0.59999907,-0.000972262234,0.7261802,0.382031947,-0.0007654681,0.004388737,1.5571034,-0.00139653275,-0.00798604451,3.22523713,5.37338066,5.373351,3.25185829E-05,-3.11586859E-07,0.000256125873,0.00119649211,0,0,4,900,196.560013,1833.85767,1,0,0,0,0,1,0,0,0,0,1,0,0,0,Grip,0,0.0319737643
81,1.619999,0.619999051,-0.0009873725,0.7262658,0.414472848,-0.000794813852,0.00420641946,1.62158215,-0.00146728707,-0.00911587849,3.22393775,5.60559464,5.60556,3.6226993E-05,-1.39682669E-07,0.0001847622,0.00127994316,0,0,4,900,196.560013,1833.85767,1,0,0,0,0,1,0,0,0,0,1,0,0,0,Grip,0,0.0320326462
82,1.639999,0.639999032,-0.00100308668,0.7263479,0.448206544,-0.0008254172,0.004008626,1.686038,-0.00153016881,-0.009889668,3.22279334,5.83771563,5.83767557,3.8665894E-05,-5.170311E-08,0.000121345074,0.00131389184,0,0,4,900,196.560013,1833.85767,1,0,0,0,0,1,0,0,0,0,1,0,0,0,Grip,0,0.0320832431
83,1.659999,0.659999,-0.00101944373,0.726426244,0.483231366,-0.0008571364,0.00380225317,1.75047326,-0.001585958,-0.0103186471,3.22176218,6.0697546,6.06970835,3.99762648E-05,8.56794E-08,6.50691654E-05,0.00130841963,0,0,4,900,196.560013,1833.85767,1,0,0,0,0,1,0,0,0,0,1,0,0,0,Grip,0,0.03212587
84,1.679999,0.679999,-0.00103647623,0.72650075,0.519546032,-0.000889774237,0.003593765,1.81488919,-0.00163189252,-0.01042441,3.22079659,6.301719,6.301667,4.03554877E-05,2.08042536E-07,1.867182E-05,0.0012739551,0,0,4,900,196.560013,1833.85767,1,0,0,0,0,1,0,0,0,0,1,0,0,0,Grip,0,0.0321607441
85,1.699999,0.699999,-0.00105421094,0.7265711,0.557149231,-0.000923207554,0.00338840485,1.879287,-0.00167166581,-0.0102680065,3.21989059,6.53361464,6.533557,3.99281271E-05,2.876821E-07,-2.1541211E-05,0.00121727493,0,0,4,900,196.560013,1833.85767,1,0,0,0,0,1,0,0,0,0,1,0,0,0,Grip,0,0.03218854
86,1.719999,0.719998956,-0.00107266952,0.7266376,0.59604,-0.000957290467,0.003191416,1.943667,-0.00170414569,-0.009849447,3.21900249,6.765445,6.76538134,3.88406334E-05,3.38153654E-07,-5.44580435E-05,0.00114490208,0,0,4,900,196.560013,1833.85767,1,0,0,0,0,1,0,0,0,0,1,0,0,0,Grip,0,0.0322098
87,1.73999894,0.739998937,-0.00109186838,0.7267004,0.6362175,-0.0009918939,0.00300644734,2.00802946,-0.00173017324,-0.009248429,3.21812034,6.99721146,6.997143,3.72222858E-05,3.79211116E-07,-8.092495E-05,0.00106203277,1,0,4,900,196.560013,1833.85767,1,0,0,0,0,1,0,0,0,0,1,0,0,0,Grip,0,0.0322253481
88,1.75999892,0.7599989,-0.00111181987,0.726759553,0.677680969,-0.0010268871,0.002836672,2.072374,-0.00174965826,-0.008488772,3.21723223,7.22891426,7.228841,3.52029456E-05,4.20484383E-07,-0.000100858175,0.000973232847,1,0,4,900,196.560013,1833.85767,1,0,0,0,0,1,0,0,0,0,1,0,0,0,Grip,-0.0002866836,0.0322358459
89,1.7799989,0.7799989,-0.00113253284,0.7268155,0.7204298,-0.00106217642,0.00268474082,2.13670063,-0.00176446629,-0.007596554,3.21632624,7.460554,7.46047449,3.28765E-05,4.42539772E-07,-0.000116128453,0.0008815534,1,0,4,900,196.560013,1833.85767,1,0,0,0,0,1,0,0,0,0,1,0,0,0,Grip,-0.000317886181,0.0322420076
90,1.79999888,0.7999989,-0.00115401193,0.7268686,0.7644634,-0.00109767716,0.00255202455,2.201008,-0.0017750368,-0.006635813,3.21537256,7.692129,7.69204473,3.03261913E-05,4.72227583E-07,-0.000127191088,0.000789411948,1,0,4,900,196.560013,1833.85767,1,0,0,0,0,1,0,0,0,0,1,0,0,0,Grip,-0.000334560056,0.03224461
91,1.81999886,0.81999886,-0.00117625925,0.7269193,0.809781253,-0.00113328535,0.00243943161,2.265296,-0.00178040937,-0.005629647,3.214395,7.923635,7.92354631,2.76564388E-05,4.74473183E-07,-0.000133071531,0.000699486758,1,0,4,900,196.560013,1833.85767,1,0,0,0,0,1,0,0,0,0,1,0,0,0,Grip,-0.000357004028,0.0322441943
92,1.83999884,0.839998841,-0.00119927479,0.7269678,0.856383,-0.001168941,0.00234709634,2.32956362,-0.00178278424,-0.004616764,3.21338177,8.155071,8.154978,2.49268487E-05,4.77679464E-07,-0.000135976181,0.000613058,1,0,4,900,196.560013,1833.85767,1,0,0,0,0,1,0,0,0,0,1,0,0,0,Grip,-0.0003587017,0.0322415158
93,1.85999882,0.8599988,-0.00122305588,0.727014661,0.9042682,-0.00120458694,0.00227469066,2.39381,-0.00178229529,-0.00362028368,3.2123208,8.386434,8.386336,2.21938826E-05,4.803264E-07,-0.0001360446,0.000531193742,1,0,4,900,196.560013,1833.85767,1,0,0,0,0,1,0,0,0,0,1,0,0,0,Grip,-0.000361125654,0.0322370753
94,1.8799988,0.8799988,-0.00124759844,0.7270603,0.9534365,-0.00124016812,0.00222145533,2.45803452,-0.001779059,-0.00266176648,3.211224,8.617721,8.617619,1.95128378E-05,4.7102057E-07,-0.000133385824,0.000454822963,1,0,4,900,196.560013,1833.85767,1,0,0,0,0,1,0,0,0,0,1,0,0,0,Grip,-0.000363126717,0.0322313979
95,1.89999878,0.8999988,-0.00127289735,0.727105,1.00388753,-0.001275646,0.00218587066,2.52223659,-0.00177389593,-0.00177923357,3.21010351,8.848929,8.848824,1.69218984E-05,4.56316656E-07,-0.000128814456,0.0003843914,1,0,4,900,196.560013,1833.85767,1,0,0,0,0,1,0,0,0,0,1,0,0,0,Grip,-0.000356091536,0.03222488
96,1.91999876,0.919998765,-0.001298946,0.727149,1.05562079,-0.00131098565,0.002166492,2.586415,-0.00176698086,-0.000968936365,3.20892334,9.080056,9.07994652,1.44566875E-05,4.16196116E-07,-0.000122521553,0.000320244348,1,0,4,900,196.560013,1833.85767,1,0,0,0,0,1,0,0,0,0,1,0,0,0,Grip,-0.0003449754,0.0322178677
97,1.93999875,0.939998746,-0.00132573734,0.727192938,1.10863614,-0.00134616811,0.002161666,2.65056944,-0.00175912282,-0.000241294038,3.20771933,9.311098,9.310986,1.21342018E-05,4.20221085E-07,-0.000115299954,0.000262291,1,0,4,900,196.560013,1833.85767,1,0,0,0,0,1,0,0,0,0,1,0,0,0,Grip,-0.000314644247,0.03221062
98,1.95999873,0.9599987,-0.00135326362,0.727236748,1.162933,-0.00138116651,0.0021690838,2.71469927,-0.00174992019,0.000370887574,3.20649147,9.542054,9.541938,9.981915E-06,3.99193254E-07,-0.000106746891,0.00021067058,1,0,4,900,196.560013,1833.85767,1,0,0,0,0,1,0,0,0,0,1,0,0,0,Grip,-0.00031768714,0.03220348
99,1.97999871,0.9799987,-0.00138151727,0.7272808,1.2185111,-0.00141596911,0.00218706229,2.77880383,-0.00174012966,0.0008989242,3.20522785,9.772922,9.772802,8.011237E-06,3.82548251E-07,-9.76248048E-05,0.000165178615,1,0,4,900,196.560013,1833.85767,1,0,0,0,0,1,0,0,0,0,1,0,0,0,Grip,-0.0003017901,0.0321965478
100,1.99999869,0.9999987,-0.0014104906,0.7273253,1.27537,-0.00145058625,0.00221365015,2.84288239,-0.00173085718,0.00132939313,3.20392847,10.0036974,10.0035763,6.21250365E-06,3.528877E-07,-8.903851E-05,0.0001252046,1,0,4,900,196.560013,1833.85767,1,0,0,0,0,1,0,0,0,0,1,0,0,0,Grip,-0.00028920648,0.0321900025
101,2.01999879,1.01999879,-0.00144017569,0.7273704,1.33350945,-0.00148500421,0.00224671769,2.906935,-0.00172089785,0.001653377,3.202629,10.2343807,10.2342558,4.600617E-06,3.004749E-07,-7.976349E-05,9.06762652E-05,1,0,4,900,196.560013,1833.85767,1,0,0,0,0,1,0,0,0,0,1,0,0,0,Grip,-0.000266783085,0.0321839452
102,2.03999877,1.03999877,-0.001470565,0.7274161,1.39292884,-0.00151922833,0.00228456641,2.97096086,-0.00171120628,0.00189243583,3.201294,10.46497,10.4648418,3.16870864E-06,2.7544408E-07,-7.07741638E-05,6.110807E-05,1,0,4,900,196.560013,1833.85767,1,0,0,0,0,1,0,0,0,0,1,0,0,0,Grip,-0.00022715902,0.0321783423
103,2.05999875,1.05999875,-0.00150165136,0.72746253,1.453628,-0.00155325991,0.00232558767,3.03496766,-0.00170157873,0.00205106335,3.20034027,10.6954632,10.6953316,1.922017E-06,2.16478412E-07,-6.16500256E-05,3.62841238E-05,1,0,4,920.194458,196.581329,1834.05664,1,0,0,0,0,1,0,0,0,0,1,0,0,0,Grip,-0.000208235724,0.0321768075
104,2.07999873,1.07999873,-0.00153342821,0.7275098,1.51560676,-0.00158712361,0.00236836658,3.098971,-0.00169318519,0.00213894527,3.20016146,10.9258871,10.9257536,8.43661837E-07,1.57098583E-07,-5.33600323E-05,1.55978487E-05,1,0,4,940.4688,196.645233,1834.65283,1,0,0,0,0,1,0,0,0,0,1,0,0,0,Grip,-0.000163657678,0.0321826935
105,2.09999871,1.09999871,-0.00156588946,0.7275579,1.57886553,-0.00162083248,0.00241172663,3.16298532,-0.00168544357,0.00216800254,3.20072174,11.1563,11.1561623,-7.75326043E-08,1.97211321E-07,-4.534622E-05,-1.40443387E-06,1,0,4,960.7489,196.75119,1835.64136,1,0,0,0,0,1,0,0,0,0,1,0,0,0,Grip,-0.000118766526,0.03219571
106,2.11999869,1.11999869,-0.00159902975,0.7276067,1.64340472,-0.00165438908,0.00245481846,3.22702646,-0.00167783,0.00215459149,3.202057,11.3867521,11.386611,-8.312054E-07,1.59227653E-07,-3.706137E-05,-1.47577512E-05,1,0,4,981.0403,196.898758,1837.01819,1,0,0,0,0,1,0,0,0,0,1,0,0,0,Grip,-0.000149091749,0.0322155878
107,2.13999867,1.13999867,-0.0016328441,0.7276565,1.7092253,-0.00168783474,0.00249718037,3.29110885,-0.00167228281,0.00211809529,3.20411921,11.6173,11.617156,-1.45088416E-06,1.14052668E-07,-3.04680561E-05,-2.525836E-05,1,0,4,1001.34851,197.087479,1838.77881,1,0,0,0,0,1,0,0,0,0,1,0,0,0,Grip,-0.0001203761,0.0322421379
108,2.15999866,1.15999866,-0.00166732876,0.727706969,1.77632833,-0.00172118261,0.00253833574,3.3552475,-0.00166739337,0.00205776887,3.20693254,11.8479967,11.84785,-1.94367021E-06,1.03185421E-07,-2.41469315E-05,-3.31904339E-05,1,0,4,1021.6792,197.317062,1840.92078,1,0,0,0,0,1,0,0,0,0,1,0,0,0,Grip,-8.62238157E-05,0.03227511
109,2.17999864,1.17999864,-0.00170248025,0.727758169,1.84471536,-0.00175444584,0.00257822522,3.4194572,-0.00166316167,0.00199447386,3.210485,12.0788956,12.0787458,-2.31550075E-06,9.8379715E-08,-1.81046671E-05,-3.879743E-05,1,0,4,1042.03748,197.587112,1843.44031,1,0,0,0,0,1,0,0,0,0,1,0,0,0,Grip,-7.80081755E-05,0.0323143676
110,2.19999862,1.19999862,-0.00173829612,0.727810144,1.91438782,-0.00178765529,0.00261692284,3.483752,-0.00166047248,0.00193488086,3.21474075,12.310051,12.3098974,-2.58907676E-06,7.826406E-08,-1.32434188E-05,-4.25807339E-05,1,0,4,1062.42859,197.8974,1846.33521,1,0,0,0,0,1,0,0,0,0,1,0,0,0,Grip,-7.43750643E-05,0.0323596969
111,2.2199986,1.2199986,-0.00177477393,0.727862835,1.98534775,-0.00182082772,0.00265480136,3.54814672,-0.00165862148,0.001893926,3.21973562,12.5415125,12.5413551,-2.7732458E-06,6.084019E-08,-8.840173E-06,-4.47818966E-05,1,0,4,1082.85791,198.247757,1849.604,1,0,0,0,0,1,0,0,0,0,1,0,0,0,Grip,-5.91676253E-05,0.0324108824
112,2.23999858,1.23999858,-0.0018119124,0.7279162,2.05759764,-0.00185397209,0.00269206916,3.6126554,-0.00165721867,0.00186339021,3.22543383,12.7733326,12.7731724,-2.87150033E-06,6.086241E-08,-4.52513859E-06,-4.554055E-05,1,0,4,1103.33032,198.637939,1853.24426,1,0,0,0,0,1,0,0,0,0,1,0,0,0,Grip,-4.59951843E-05,0.032467965
113,2.25999856,1.25999856,-0.00184971048,0.7279701,2.13113976,-0.00188711623,0.00272936677,3.67729259,-0.001657207,0.00186488032,3.23185921,13.0055647,13.0054,-2.89978925E-06,6.813551E-09,-1.22493225E-06,-4.51808519E-05,1,0,4,1123.8512,199.06781,1857.25488,1,0,0,0,0,1,0,0,0,0,1,0,0,0,Grip,-4.601198E-05,0.032530725
114,2.27999854,1.27999854,-0.00188816816,0.72802484,2.2059772,-0.001920282,0.00276726019,3.74207234,-0.00165828969,0.001894671,3.238988,13.2382584,13.23809,-2.87708826E-06,1.672663E-08,1.34114987E-06,-4.40511649E-05,1,0,4,1144.42529,199.537323,1861.63525,1,0,0,0,0,1,0,0,0,0,1,0,0,0,Grip,-5.15104466E-06,0.0325991623
115,2.29999852,1.29999852,-0.00192728557,0.7280803,2.2821126,-0.00195348216,0.00280612172,3.807009,-0.00166000682,0.0019430765,3.246832,13.4714651,13.4712934,-2.80735549E-06,8.04611044E-09,3.64018615E-06,-4.22503363E-05,1,0,4,1165.05786,200.046387,1866.38477,1,0,0,0,0,1,0,0,0,0,1,0,0,0,Grip,-1.26453324E-05,0.0326732472
116,2.3199985,1.3199985,-0.00196706364,0.728136241,2.35954976,-0.00198672968,0.0028465623,3.87211657,-0.00166237587,0.00202202937,3.2553792,13.7052374,13.705061,-2.69664451E-06,-7.599142E-09,5.648422E-06,-3.990177E-05,1,0,4,1185.75391,200.594986,1871.503,1,0,0,0,0,1,0,0,0,0,1,0,0,0,Grip,-6.08285927E-06,0.0327530131
117,2.33999848,1.33999848,-0.00200750353,0.728193343,2.438292,-0.002020047,0.0028892816,3.93740916,-0.00166586833,0.002135965,3.26462984,13.9396257,13.9394445,-2.55974E-06,-2.30141186E-08,6.89475928E-06,-3.72479553E-05,1,0,4,1206.51868,201.183151,1876.99048,1,0,0,0,0,1,0,0,0,0,1,0,0,0,Grip,5.744951E-06,0.03283824
118,2.35999846,1.35999846,-0.00204860629,0.728250861,2.518344,-0.00205344823,0.002934131,4.002901,-0.00167005928,0.00224247342,3.27459574,14.1746788,14.1744928,-2.40118243E-06,-5.473259E-08,7.81213748E-06,-3.43690554E-05,1,0,4,1227.35718,201.810928,1882.84753,1,0,0,0,0,1,0,0,0,0,1,0,0,0,Grip,1.73986737E-05,0.0329290554
119,2.37999845,1.37999845,-0.00209037471,0.728309631,2.599709,-0.002086942,0.002982317,4.06860638,-0.00167469261,0.00240929658,3.285265,14.410449,14.41026,-2.22679228E-06,-4.001249E-08,8.646384E-06,-3.135823E-05,1,0,4,1248.27429,202.478424,1889.07507,1,0,0,0,0,1,0,0,0,0,1,0,0,0,Grip,4.13778362E-05,0.03302538
120,2.39999843,1.39999843,-0.00213281,0.7283691,2.68239212,-0.00212054444,0.00303352671,4.134539,-0.00168011757,0.00256048515,3.29663754,14.6469879,14.6467953,-2.0454172E-06,-3.22894955E-08,9.048818E-06,-2.83447462E-05,1,0,4,1269.27527,203.1857,1895.67383,1,0,0,0,0,1,0,0,0,0,1,0,0,0,Grip,3.02494427E-05,0.0331274346
121,2.41999841,1.41999841,-0.002175915,0.7284295,2.76639819,-0.00215425831,0.00308859441,4.20071363,-0.00168569386,0.00275338534,3.30872536,14.884346,14.8841467,-1.85077079E-06,-2.96149061E-08,9.666983E-06,-2.52433838E-05,1,0,4,1290.36548,203.932983,1902.64575,1,0,0,0,0,1,0,0,0,0,1,0,0,0,Grip,2.44108578E-05,0.0332348943
122,2.43999839,1.43999839,-0.00221969234,0.7284912,2.85173249,-0.00218810141,0.00314795179,4.267144,-0.00169215491,0.002967869,3.32152843,15.1225758,15.1223717,-1.65379606E-06,-4.128446E-08,9.76746651E-06,-2.22056151E-05,1,0,4,1311.54968,204.720444,1909.99255,1,0,0,0,0,1,0,0,0,0,1,0,0,0,Grip,2.238887E-05,0.0333480164
123,2.45999837,1.45999837,-0.00226414553,0.728553951,2.93839979,-0.00222208258,0.00321133086,4.333845,-0.00169905834,0.00316895312,3.33504677,15.3617258,15.361516,-1.45263039E-06,-6.41275051E-08,9.794597E-06,-1.92043717E-05,1,0,4,1332.83337,205.548248,1917.71582,1,0,0,0,0,1,0,0,0,0,1,0,0,0,Grip,3.121105E-05,0.03346684
124,2.47999835,1.47999835,-0.002309278,0.728618145,3.02640629,-0.00225622323,0.003279223,4.40083075,-0.00170703279,0.00339461258,3.34928036,15.6018486,15.601634,-1.26729719E-06,-4.53080453E-08,9.115476E-06,-1.64991834E-05,1,0,4,1354.222,206.416733,1925.8186,1,0,0,0,0,1,0,0,0,0,1,0,0,0,Grip,4.84803932E-05,0.0335912667
125,2.49999833,1.49999833,-0.00235509314,0.7286835,3.115758,-0.00229052571,0.00335131586,4.46811533,-0.00171512365,0.00360463746,3.3642292,15.8429976,15.8427773,-1.09057873E-06,-4.22854E-08,8.686647E-06,-1.39846461E-05,1,0,4,1375.72058,207.32608,1934.30249,1,0,0,0,0,1,0,0,0,0,1,0,0,0,Grip,3.425288E-05,0.03372154
126,2.51999831,1.51999831,-0.00240159477,0.7287502,3.206461,-0.00232499815,0.003428339,4.535714,-0.001723622,0.00385115854,3.379941,16.0852222,16.0849972,-9.23872E-07,-2.89005264E-08,8.24013E-06,-1.16703841E-05,1,0,4,1397.33484,208.276657,1943.17114,1,0,0,0,0,1,0,0,0,0,1,0,0,0,Grip,3.196776E-05,0.0338573977
127,2.53999829,1.53999829,-0.00244878652,0.7288186,3.29852152,-0.00235965056,0.003510039,4.603641,-0.00173262088,0.004085002,3.39634418,16.328577,16.3283463,-7.67642632E-07,-4.22166124E-08,7.64869947E-06,-9.553815E-06,1,0,4,1419.06958,209.268768,1952.42737,1,0,0,0,0,1,0,0,0,0,1,0,0,0,Grip,2.18487967E-05,0.0339991152
128,2.55999827,1.55999827,-0.002496673,0.728888631,3.391947,-0.00239449716,0.00359666953,4.67191124,-0.00174232991,0.004331523,3.41351032,16.5731144,16.5728779,-6.298069E-07,-3.276273E-08,6.73768955E-06,-7.723822E-06,1,0,4,1440.93091,210.302826,1962.07483,1,0,0,0,0,1,0,0,0,0,1,0,0,0,Grip,3.191576E-05,0.0341466367
129,2.57999825,1.57999825,-0.002545258,0.7289603,3.4867444,-0.00242953422,0.003687992,4.74054,-0.00175185269,0.00456612324,3.4314394,16.8188877,16.8186455,-4.98956069E-07,-3.214091E-08,6.40369353E-06,-6.030511E-06,1,0,4,1462.924,211.37915,1972.1167,1,0,0,0,0,1,0,0,0,0,1,0,0,0,Grip,2.47686239E-05,0.03430002
130,2.59999824,1.59999824,-0.00259454641,0.729033947,3.58292127,-0.002464777,0.003784215,4.809542,-0.0017621438,0.004811154,3.45010757,17.06595,17.0657024,-3.820751E-07,-3.195975E-08,5.68049E-06,-4.55160762E-06,1,0,4,1485.05444,212.498184,1982.557,1,0,0,0,0,1,0,0,0,0,1,0,0,0,Grip,2.42985279E-05,0.0344593748
131,2.61999822,1.61999822,-0.00264454237,0.7291093,3.68048525,-0.00250023743,0.00388504076,4.878933,-0.001773017,0.005041284,3.46953869,17.3143578,17.3141022,-2.83820555E-07,-3.5375642E-08,4.765963E-06,-3.33302864E-06,1,0,4,1507.32849,213.66037,1993.3999,1,0,0,0,0,1,0,0,0,0,1,0,0,0,Grip,2.416157E-05,0.0346246958
132,2.6399982,1.6399982,-0.00269525056,0.7291868,3.77944422,-0.00253591663,0.003990871,4.94872761,-0.00178396,0.005291507,3.48973274,17.564167,17.5639019,-1.96974725E-07,-2.938679E-08,4.17274259E-06,-2.2805375E-06,1,0,4,1529.75146,214.8662,2004.65,1,0,0,0,0,1,0,0,0,0,1,0,0,0,Grip,2.67439846E-05,0.034796007
133,2.65999818,1.65999818,-0.00274667563,0.7292663,3.87980676,-0.00257182,0.004101408,5.018942,-0.00179517083,0.005526864,3.51071358,17.8154278,17.8151569,-1.1944212E-07,-2.596889E-08,3.714737E-06,-1.36353344E-06,1,0,4,1552.329,216.116089,2016.31116,1,0,0,0,0,1,0,0,0,0,1,0,0,0,Grip,2.22164126E-05,0.0349734351
134,2.67999816,1.67999816,-0.00279882248,0.7293482,3.98158169,-0.00260795536,0.004216891,5.089592,-0.00180676579,0.00577413,3.532505,18.0682,18.06792,-5.16884029E-08,-2.17998242E-08,3.28712827E-06,-5.81876463E-07,1,0,4,1575.06738,217.410614,2028.38879,1,0,0,0,0,1,0,0,0,0,1,0,0,0,Grip,1.963248E-05,0.0351568833
135,2.69999814,1.69999814,-0.00285169622,0.729432166,4.084778,-0.00264433562,0.004337006,5.160693,-0.00181901269,0.00600575,3.55505943,18.3225384,18.3222542,5.122274E-09,-3.54747023E-08,2.60040383E-06,5.68690055E-08,1,0,4,1597.97266,218.750244,2040.88721,1,0,0,0,0,1,0,0,0,0,1,0,0,0,Grip,1.64806661E-05,0.0353465676
136,2.71999812,1.71999812,-0.00290530152,0.7295184,4.189405,-0.00268096477,0.00446209544,5.232262,-0.00183145748,0.006254483,3.5784483,18.5785027,18.57821,5.122274E-08,-2.52655337E-08,2.14214629E-06,5.609116E-07,1,0,4,1621.05078,220.135574,2053.812,1,0,0,0,0,1,0,0,0,0,1,0,0,0,Grip,2.68188742E-05,0.03554242
137,2.739998,1.7399981,-0.002959644,0.7296075,4.295472,-0.00271784631,0.00459244335,5.30431461,-0.00184407691,0.00651739538,3.602624,18.8361511,18.83585,9.24337655E-08,-2.00936565E-08,1.91244067E-06,9.984417E-07,1,0,4,1644.30737,221.567108,2067.168,1,0,0,0,0,1,0,0,0,0,1,0,0,0,Grip,1.91007421E-05,0.0357444063
138,2.759998,1.75999808,-0.00301472866,0.7296989,4.40299,-0.00275499118,0.00472736452,5.376868,-0.00185724348,0.00674605835,3.627658,19.0955429,19.09523,1.25262886E-07,-1.86574383E-08,1.57435375E-06,1.334795E-06,1,0,4,1667.749,223.045441,2080.96045,1,0,0,0,0,1,0,0,0,0,1,0,0,0,Grip,1.51908034E-05,0.0359528735
139,2.779998,1.77999806,-0.00307056168,0.7297932,4.511968,-0.002792408,0.004867513,5.44993734,-0.00187084079,0.007007434,3.65347862,19.3567333,19.3564129,1.48080289E-07,1.71207528E-08,1.20677885E-06,1.55678083E-06,1,0,4,1691.38281,224.571228,2095.19556,1,0,0,0,0,1,0,0,0,0,1,0,0,0,Grip,1.41050232E-05,0.0361675769
140,2.799998,1.799998,-0.00312714861,0.729890049,4.62241745,-0.00283010327,0.005012607,5.52354145,-0.00188476406,0.0072547,3.68020535,19.6197834,19.6194553,1.671724E-07,1.18877965E-08,9.778881E-07,1.73407909E-06,1,0,4,1715.214,226.144974,2109.87842,1,0,0,0,0,1,0,0,0,0,1,0,0,0,Grip,-1.29432883E-05,0.0363887548
141,2.819998,1.819998,-0.0031844948,0.72999,4.73434925,-0.002868092,0.005163034,5.5976963,-0.00189943239,0.007521338,3.70774269,19.88476,19.8844185,1.75088644E-07,6.85882862E-09,4.1951327E-07,1.79213544E-06,1,0,4,1739.25,227.767426,2125.01538,1,0,0,0,0,1,0,0,0,0,1,0,0,0,Grip,-8.987174E-06,0.0366163254
142,2.839998,1.839998,-0.00324260676,0.7300928,4.847775,-0.002906376,0.005318436,5.67242,-0.0019142055,0.007770094,3.736186,20.1517181,20.1513672,1.792796E-07,4.2580246E-09,2.20809468E-07,1.81086011E-06,1,0,4,1763.497,229.439011,2140.61084,1,0,0,0,0,1,0,0,0,0,1,0,0,0,Grip,-5.1852744E-06,0.03685052
143,2.859998,1.859998,-0.00330149056,0.730198741,4.962706,-0.00294496282,0.00547948247,5.7477293,-0.00192933949,0.008052331,3.76546383,20.420723,20.42036,1.81142241E-07,-1.06474363E-09,8.879907E-08,1.80570214E-06,1,0,4,1787.96191,231.160568,2156.67261,1,0,0,0,0,1,0,0,0,0,1,0,0,0,Grip,-3.21906646E-06,0.0370910168
144,2.879998,1.879998,-0.003361152,0.730308056,5.07915449,-0.00298386742,0.00564608537,5.82364273,-0.00194523018,0.008330145,3.79567146,20.6918373,20.6914654,1.74855813E-07,7.021477E-09,-3.23242659E-07,1.72031594E-06,1,0,4,1812.65112,232.932571,2173.205,1,0,0,0,0,1,0,0,0,0,1,0,0,0,Grip,8.049462E-07,0.0373382829
145,2.899998,1.899998,-0.003421598,0.7304204,5.19713259,-0.003023091,0.00581805035,5.900178,-0.001961179,0.008598249,3.82676125,20.965126,20.96474,1.67405233E-07,4.406586E-09,-3.421426E-07,1.62565E-06,1,0,4,1837.5719,234.755661,2190.21387,1,0,0,0,0,1,0,0,0,0,1,0,0,0,Grip,-5.30823672E-06,0.03759212
146,2.919998,1.91999793,-0.003482835,0.730536342,5.31665325,-0.00306264171,0.005996212,5.977353,-0.00197753543,0.008908077,3.858757,21.240654,21.2402554,1.59954652E-07,1.37134695E-08,-3.04722136E-07,1.53324436E-06,1,0,4,1862.73083,236.630539,2207.706,1,0,0,0,0,1,0,0,0,0,1,0,0,0,Grip,-3.331379E-06,0.0378525145
147,2.939998,1.93999791,-0.00354486913,0.7306558,5.43773031,-0.00310252863,0.00618034648,6.05518627,-0.0019943458,0.009206729,3.89165878,21.5184841,21.518074,1.55065209E-07,1.47774148E-09,-2.55973475E-07,1.46727155E-06,1,0,4,1888.1355,238.557739,2225.68652,1,0,0,0,0,1,0,0,0,0,1,0,0,0,Grip,-1.03673829E-05,0.0381197035
148,2.959998,1.95999789,-0.00360770826,0.730778933,5.56037664,-0.00314276386,0.006370826,6.133697,-0.00201176153,0.009523984,3.925538,21.7986832,21.79826,1.49011612E-07,-2.56624749E-10,-3.11700319E-07,1.39194378E-06,1,0,4,1913.79272,240.537888,2244.16064,1,0,0,0,0,1,0,0,0,0,1,0,0,0,Grip,-1.11717247E-06,0.0383935124
149,2.97999787,1.97999787,-0.003671359,0.730906,5.68460655,-0.00318336114,0.006567711,6.212903,-0.00202986412,0.009844243,3.96029949,22.0813236,22.0808849,1.36671588E-07,7.83386955E-09,-6.027206E-07,1.26039834E-06,1,0,4,1939.70984,242.571564,2263.13452,1,0,0,0,0,1,0,0,0,0,1,0,0,0,Grip,1.94008308E-07,0.0386740975
150,2.99999785,1.99999785,-0.003735829,0.7310368,5.81043339,-0.00322432327,0.006770911,6.29282427,-0.0020481064,0.0101600075,3.99606228,22.3664665,22.3660126,1.24098733E-07,1.45749661E-08,-5.215096E-07,1.12991609E-06,1,0,4,1965.89429,244.6593,2282.61255,1,0,0,0,0,1,0,0,0,0,1,0,0,0,Grip,-5.92240531E-06,0.03896159
151,3.01999784,2.01999784,-0.00380112557,0.7311717,5.937873,-0.003265662,0.00698129134,6.37347937,-0.00206693076,0.0105190091,4.032755,22.6541824,22.6537132,1.1199154E-07,1.53239874E-08,-5.452496E-07,1.0067771E-06,1,0,4,1992.35327,246.801651,2302.6,1,0,0,0,0,1,0,0,0,0,1,0,0,0,Grip,-1.10186738E-05,0.0392556861
152,3.03999782,2.03999782,-0.00386725622,0.7313111,6.06694,-0.00330738747,0.00719874632,6.454888,-0.002086279,0.0108727487,4.070425,22.9445419,22.9440556,9.755604E-08,1.38116754E-08,-5.92939443E-07,8.6594514E-07,1,0,4,2019.09424,248.999054,2323.10132,1,0,0,0,0,1,0,0,0,0,1,0,0,0,Grip,-1.15849343E-05,0.0395566933
153,3.0599978,2.0599978,-0.00393422926,0.731454551,6.19764948,-0.00334950746,0.00742309773,6.537069,-0.00210599974,0.0112175709,4.109049,23.2376137,23.23711,8.754432E-08,1.61924718E-09,-5.22613163E-07,7.673088E-07,1,0,4,2046.125,251.252014,2344.12085,1,0,0,0,0,1,0,0,0,0,1,0,0,0,Grip,-1.04416258E-05,0.039864406
154,3.07999778,2.07999778,-0.00400205236,0.73160243,6.33001757,-0.003392033,0.007655165,6.62004232,-0.00212627929,0.0116033712,4.148674,23.5334663,23.5329437,7.706694E-08,-2.05542339E-09,-4.98462953E-07,6.67010852E-07,1,0,4,2073.45264,253.560867,2365.662,1,0,0,0,0,1,0,0,0,0,1,0,0,0,Grip,-1.22415088E-06,0.0401788875
155,3.09999776,2.09999776,-0.004070734,0.731755137,6.46406031,-0.00343497284,0.007895187,6.703828,-0.00214698957,0.0120010693,4.1892767,23.83217,23.83163,7.03148544E-08,-2.20594454E-09,-4.03199323E-07,6.00966246E-07,1,0,4,2101.085,255.925964,2387.72778,1,0,0,0,0,1,0,0,0,0,1,0,0,0,Grip,1.5539E-06,0.04050015
156,3.11999774,2.11999774,-0.00414028252,0.7319126,6.599795,-0.003478339,0.008143191,6.78844547,-0.00216830522,0.0124002341,4.23088074,24.1338,24.13324,6.28642738E-08,-2.26878849E-09,-4.004312E-07,5.305908E-07,1,0,4,2129.03,258.347565,2410.3208,1,0,0,0,0,1,0,0,0,0,1,0,0,0,Grip,1.667694E-06,0.04082814
157,3.13999772,2.13999772,-0.00421070727,0.7320752,6.73723745,-0.00352213974,0.008399404,6.87391472,-0.00219004,0.0128106214,4.2734623,24.4384232,24.4378452,5.750917E-08,-2.65549449E-09,-3.1586876E-07,4.79357368E-07,1,0,4,2157.29517,260.825836,2433.44238,1,0,0,0,0,1,0,0,0,0,1,0,0,0,Grip,1.715204E-06,0.0411627963
158,3.1599977,2.1599977,-0.00428201631,0.732242644,6.87640572,-0.0035663906,0.00866373349,6.96025562,-0.002212543,0.0132164918,4.317045,24.7461147,24.7455139,4.51691449E-08,1.11669074E-08,-4.885514E-07,3.71829174E-07,1,0,4,2185.888,263.36087,2457.09375,1,0,0,0,0,1,0,0,0,0,1,0,0,0,Grip,2.0075538E-06,0.0415040925
159,3.17999768,2.17999768,-0.00435421942,0.732415557,7.01731825,-0.0036111006,0.008937255,7.047488,-0.00223550014,0.0136760529,4.36162949,25.056942,25.0563183,3.11993062E-08,1.36863259E-08,-6.019347E-07,2.53651649E-07,1,0,4,2214.81616,265.952667,2481.27441,1,0,0,0,0,1,0,0,0,0,1,0,0,0,Grip,-8.442182E-06,0.04185178
160,3.19999766,2.19999766,-0.00442732545,0.732594,7.159992,-0.003656271,0.009219653,7.13563156,-0.00225851545,0.0141199213,4.40716743,25.3709812,25.3703346,2.00234354E-08,3.96943562E-08,-2.86941628E-07,1.60780587E-07,1,0,4,2244.08716,268.601044,2505.98315,1,0,0,0,0,1,0,0,0,0,1,0,0,0,Grip,-1.03468619E-05,0.0422059558
161,3.21999764,2.21999764,-0.0045013437,0.7327781,7.3044467,-0.003701915,0.009511092,7.2247057,-0.002282206,0.0145719387,4.45370674,25.6882973,25.6876278,1.23400241E-08,3.44960718E-08,-1.33872931E-07,9.786416E-08,1,0,4,2273.709,271.3058,2531.21777,1,0,0,0,0,1,0,0,0,0,1,0,0,0,Grip,-3.00089323E-05,0.042566523
162,3.23999763,2.23999763,-0.004576284,0.7329681,7.45070076,-0.003748046,0.009811915,7.31472969,-0.00230654841,0.0150411855,4.50119972,26.0089664,26.0082684,5.820766E-09,2.72147869E-08,-1.433485E-07,4.559425E-08,1,0,4,2303.68872,274.066467,2556.97437,1,0,0,0,0,1,0,0,0,0,1,0,0,0,Grip,-2.607903E-05,0.0429332145
163,3.25999761,2.25999761,-0.004652156,0.733163953,7.598774,-0.0037946715,0.0101221679,7.40572357,-0.002331275,0.015512621,4.549694,26.3330536,26.3323288,1.86264515E-09,1.97944363E-08,-2.36864039E-08,1.44109027E-08,1,0,4,2334.03369,276.882416,2583.24634,1,0,0,0,0,1,0,0,0,0,1,0,0,0,Grip,-2.05743781E-05,0.0433059558
164,3.27999759,2.27999759,-0.00472897058,0.7333662,7.748686,-0.00384180387,0.0104423994,7.497706,-0.00235661864,0.0160115771,4.599118,26.6606331,26.6598816,-1.16415322E-09,1.49741286E-08,-4.38242651E-08,-8.89632545E-09,1,0,4,2364.751,279.753,2610.02832,1,0,0,0,0,1,0,0,0,0,1,0,0,0,Grip,-1.4964593E-05,0.0436844863
165,3.29999757,2.29999757,-0.004806738,0.733574867,7.90045643,-0.003889451,0.0107725514,7.59069538,-0.002382358,0.0165076,4.649472,26.99177,26.99099,-2.561137E-09,1.25213884E-08,1.691082E-08,-1.93321679E-08,1,0,4,2395.84766,282.677155,2637.31,1,0,0,0,0,1,0,0,0,0,1,0,0,0,Grip,-1.13204405E-05,0.0440687165
166,3.31999755,2.31999755,-0.0048854677,0.733790159,8.054106,-0.003937623,0.0111128176,7.68471,-0.002408598,0.0170133077,4.700732,27.3265343,27.32572,-3.259629E-09,1.01500079E-08,4.15367225E-08,-2.430359E-08,1,0,4,2427.331,285.653778,2665.081,1,0,0,0,0,1,0,0,0,0,1,0,0,0,Grip,-9.466169E-06,0.04445828
167,3.33999753,2.33999753,-0.00496517075,0.7340123,8.209657,-0.003986328,0.0114632575,7.779767,-0.00243524555,0.0175219961,4.75285053,27.6649876,27.6641426,-2.32830644E-09,7.795523E-09,9.848455E-08,-1.71476149E-08,1,0,4,2459.20679,288.681366,2693.328,1,0,0,0,0,1,0,0,0,0,1,0,0,0,Grip,-7.673406E-06,0.0448529273
168,3.35999751,2.35999751,-0.00504585868,0.7342415,8.367127,-0.00403557532,0.0118239745,7.87588358,-0.00246237032,0.0180358533,4.805827,28.0071945,28.0063152,-1.39698386E-09,1.02133564E-08,1.17904655E-07,-1.01630171E-08,1,0,4,2491.48145,291.75827,2722.03467,1,0,0,0,0,1,0,0,0,0,1,0,0,0,Grip,-5.89341562E-06,0.0452525541
169,3.37999749,2.37999749,-0.00512754126,0.734478,8.526542,-0.004085373,0.0121952221,7.97307634,-0.002489891,0.0185623765,4.859638,28.3532162,28.3523,1.39698386E-09,2.86388224E-09,1.69636579E-07,1.00391393E-08,1,0,4,2524.16113,294.882446,2751.18237,1,0,0,0,0,1,0,0,0,0,1,0,0,0,Grip,-7.721297E-06,0.04565639
170,3.39999747,2.39999747,-0.005210231,0.7347219,8.687921,-0.00413573254,0.0125768073,8.07136,-0.00251797028,0.01907926,4.91416454,28.7031116,28.70216,1.39698386E-09,2.85558421E-09,2.906306E-08,9.91690552E-09,1,0,4,2557.25024,298.0516,2780.75,1,0,0,0,0,1,0,0,0,0,1,0,0,0,Grip,-2.16509488E-06,0.0460644029
171,3.41999745,2.41999745,-0.00529393926,0.7349735,8.851286,-0.004186658,0.0129688494,8.17075,-0.00254628249,0.019602105,4.9695015,29.0569324,29.0559425,3.7252903E-09,-2.05246087E-09,7.159125E-08,2.61234288E-08,1,0,4,2590.75513,301.263153,2810.713,1,0,0,0,0,1,0,0,0,0,1,0,0,0,Grip,-2.15882164E-06,0.0464761481
172,3.43999743,2.43999743,-0.00537867658,0.735232949,9.016662,-0.0042381594,0.0133713624,8.271257,-0.00257506035,0.020125648,5.025387,29.41474,29.4137058,3.7252903E-09,-9.09357E-09,-6.997129E-08,2.580602E-08,1,0,4,2624.679,304.514069,2841.04321,1,0,0,0,0,1,0,0,0,0,1,0,0,0,Grip,1.55166038E-06,0.04689101
173,3.45999742,2.45999742,-0.005464455,0.7355006,9.184068,-0.00429023942,0.0137842866,8.372897,-0.0026040012,0.02064621,5.08198738,29.7765675,29.7754917,4.19095159E-09,-9.034686E-09,-8.29698E-09,2.86793824E-08,1,0,4,2659.02661,307.800964,2871.709,1,0,0,0,0,1,0,0,0,0,1,0,0,0,Grip,6.874739E-06,0.047308445
174,3.4799974,2.4799974,-0.005551286,0.7357764,9.353529,-0.004342905,0.0142070726,8.475678,-0.002633268,0.0211393,5.139065,30.1424732,30.1413536,5.122274E-09,-6.490202E-09,-2.79434644E-08,3.462755E-08,1,0,4,2693.8,311.119873,2902.67383,1,0,0,0,0,1,0,0,0,0,1,0,0,0,Grip,6.83022245E-06,0.04772801
175,3.49999738,2.49999738,-0.005639182,0.736060858,9.525067,-0.00439615874,0.0146400016,8.579611,-0.00266269781,0.0216464512,5.196619,30.51249,30.511322,6.519258E-09,-1.66694913E-09,3.317345E-08,4.35376073E-08,1,0,4,2729.00244,314.466675,2933.89868,1,0,0,0,0,1,0,0,0,0,1,0,0,0,Grip,4.90659249E-06,0.0481490865
176,3.51999736,2.51999736,-0.00572815444,0.736353934,9.698707,-0.00445000641,0.0150823733,8.684701,-0.00269238371,0.0221185852,5.254507,30.8866463,30.8854351,6.519258E-09,7.93017E-10,8.908419E-09,4.301083E-08,1,0,4,2764.635,317.8366,2965.33936,1,0,0,0,0,1,0,0,0,0,1,0,0,0,Grip,1.26021348E-06,0.0485709831
177,3.53999734,2.53999734,-0.005818215,0.736655951,9.874471,-0.00450444967,0.0155339511,8.790955,-0.00272216275,0.0225788914,5.312681,31.2649746,31.26371,7.916242E-09,-4.18725676E-09,3.84182641E-08,5.15962419E-08,1,0,4,2800.69873,321.2244,2996.94653,1,0,0,0,0,1,0,0,0,0,1,0,0,0,Grip,-5.99520831E-07,0.04899294
178,3.55999732,2.55999732,-0.005909377,0.736966968,10.0523825,-0.004559493,0.0159941986,8.89837551,-0.00275217462,0.0230123755,5.371046,31.6474915,31.6461716,6.98491931E-09,-1.806759E-09,-6.716379E-08,4.49765629E-08,1,0,4,2837.19263,324.624268,3028.6665,1,0,0,0,0,1,0,0,0,0,1,0,0,0,Grip,3.165566E-06,0.0494142435
179,3.5799973,2.5799973,-0.006001651,0.7372872,10.2324648,-0.00461513456,0.0164627265,9.006965,-0.00278207,0.0234263949,5.42945862,32.0342064,32.0328331,6.519258E-09,-4.10774E-09,-3.220679E-08,4.147209E-08,1,0,4,2874.11523,328.0299,3060.44019,1,0,0,0,0,1,0,0,0,0,1,0,0,0,Grip,1.36590972E-06,0.04983394
180,3.59999728,2.59999728,-0.006095049,0.7376169,10.4147415,-0.004671374,0.0169387478,9.116721,-0.00281196553,0.023801066,5.48782349,32.42513,32.4237,6.98491931E-09,-4.108564E-09,-2.10439079E-08,4.38994938E-08,1,0,4,2911.464,331.434448,3092.20386,1,0,0,0,0,1,0,0,0,0,1,0,0,0,Grip,3.10545124E-06,0.05025118
181,3.61999726,2.61999726,-0.00618958334,0.737956047,10.5992365,-0.004728209,0.0174213964,9.227639,-0.00284176785,0.02413243,5.54590225,32.8202553,32.8187637,6.519258E-09,-3.96291977E-09,-6.33331751E-08,4.04804155E-08,1,0,4,2949.235,334.8304,3123.88745,1,0,0,0,0,1,0,0,0,0,1,0,0,0,Grip,3.10607447E-06,0.05066514
182,3.63999724,2.63999724,-0.00628526555,0.738305032,10.7859726,-0.004785635,0.01790984,9.339713,-0.00287129078,0.024422165,5.603695,33.2195663,33.21801,8.84756446E-09,-8.749352E-09,2.751598E-08,5.427855E-08,1,0,4,2987.42334,338.2098,3155.41626,1,0,0,0,0,1,0,0,0,0,1,0,0,0,Grip,2.99596718E-06,0.05107464
183,3.65999722,2.65999722,-0.006382108,0.7386637,10.9749718,-0.00484364945,0.0184026472,9.452932,-0.00290072057,0.0246403739,5.660963,33.62303,33.62141,9.778887E-09,-6.276274E-09,-5.69160754E-08,5.927364E-08,1,0,4,3026.02124,341.564,3186.71,1,0,0,0,0,1,0,0,0,0,1,0,0,0,Grip,6.61451031E-06,0.0514787138
184,3.67999721,2.67999721,-0.00648012245,0.739032149,11.1662569,-0.00490224361,0.0188986883,9.567285,-0.002929708,0.0248020515,5.71761131,34.0306244,34.0289345,1.071021E-08,-6.235335E-09,-1.72382713E-08,6.414291E-08,1,0,4,3065.02148,344.883728,3217.68237,1,0,0,0,0,1,0,0,0,0,1,0,0,0,Grip,4.744863E-06,0.05187625
185,3.69999719,2.69999719,-0.00657932,0.73941046,11.3598518,-0.004961409,0.0193965752,9.682751,-0.00295827631,0.0248943456,5.773306,34.4422951,34.4405327,1.11758709E-08,-1.1045409E-08,-4.67766768E-08,6.613368E-08,1,0,4,3104.4126,348.159149,3248.24121,1,0,0,0,0,1,0,0,0,0,1,0,0,0,Grip,4.713913E-06,0.052266
186,3.71999717,2.71999717,-0.006679712,0.7397987,11.5557775,-0.00502113625,0.01989488,9.799312,-0.00298635568,0.0249152072,5.828047,34.85798,34.85614,1.16415322E-08,-1.09050786E-08,-7.60121139E-08,6.806993E-08,1,0,4,3144.184,351.379944,3278.29053,1,0,0,0,0,1,0,0,0,0,1,0,0,0,Grip,8.350329E-06,0.05264678
187,3.73999715,2.73999715,-0.00678130938,0.7401969,11.754056,-0.00508141145,0.020391589,9.916943,-0.00301375985,0.024835486,5.881548,35.2776,35.2756844,1.3038516E-08,-5.84955773E-09,-6.45941753E-08,7.533415E-08,1,0,4,3184.32129,354.535034,3307.72681,1,0,0,0,0,1,0,0,0,0,1,0,0,0,Grip,8.244239E-06,0.0530172624
188,3.75999713,2.75999713,-0.006884117,0.740605056,11.9546976,-0.005141917,0.0208848286,10.0350256,-0.003025285,0.02466198,5.90415,35.7010727,35.69908,1.3038516E-08,-5.88905635E-09,-8.442635E-09,7.444781E-08,1,0,4,3224.80933,357.6132,3336.445,1,0,0,0,0,1,0,0,0,0,1,0,0,0,Grip,4.42226565E-06,0.0556373522
189,3.779997,2.779997,-0.00698814075,0.7410231,12.157711,-0.00520266639,0.02136271,10.1535845,-0.003037462,0.0238941051,5.927944,36.1261749,36.1241,1.53668225E-08,-8.581419E-09,7.98970845E-09,8.671768E-08,1,0,4,3278.98975,361.5543,3373.2146,1,0,0,0,0,1,0,0,0,0,1,0,0,0,Grip,4.45212663E-06,0.0616587624
190,3.799997,2.799997,-0.007093379,0.7414503,12.3630934,-0.005263315,0.0218124576,10.2719412,-0.00303243287,0.0224873424,5.917835,36.55299,36.5508347,1.11758709E-08,1.22685762E-09,-1.43367458E-07,6.23408241E-08,1,0,4,3354.00439,366.642151,3420.683,1,0,0,0,0,1,0,0,0,0,1,0,0,0,Grip,6.48755258E-06,0.07513257
191,3.819997,2.819997,-0.00719979452,0.741887033,12.570775,-0.005321985,0.0222116634,10.3864412,-0.00293350313,0.0199602917,5.72500229,36.9790764,36.9768333,1.11758709E-08,1.24208255E-09,-2.09267519E-08,6.16536653E-08,1,0,4,3475.092,373.8329,3487.771,1,0,0,0,0,1,0,0,0,0,1,0,0,0,Grip,-9.27504345E-07,0.11241971
192,3.839997,2.839997,-0.007307368,0.7423307,12.7807169,-0.005379618,0.0224765744,10.4989176,-0.00288165174,0.0132455491,5.62381744,37.3912773,37.38896,1.02445483E-08,3.85074328E-09,-1.682577E-08,5.591047E-08,1,0,4,3743.70386,384.311951,3585.53833,1,0,0,0,0,1,0,0,0,0,1,0,0,0,Grip,-9.390144E-07,0.04365947
193,3.859997,2.859997,-0.00741612166,0.7427766,12.9929619,-0.005438492,0.0225458816,10.6138182,-0.002943701,0.00346535817,5.74502945,37.796196,37.7938042,1.02445483E-08,3.71850128E-09,4.19735677E-08,5.53052857E-08,1,0,4,3361.88574,367.150055,3425.42188,1,0,0,0,0,1,0,0,0,0,1,0,0,0,Grip,-2.9111618E-06,0.0699046254
194,3.879997,2.879997,-0.00752605,0.7432214,13.2074986,-0.005497061,0.02244449,10.7281227,-0.0029284507,-0.0050695613,5.715227,38.20984,38.2073746,1.071021E-08,-1.22040056E-09,2.172264E-08,5.72032E-08,1,0,4,3560.11523,378.0293,3526.92261,1,0,0,0,0,1,0,0,0,0,1,0,0,0,Grip,-2.811187E-06,0.1119995
195,3.899997,2.899997,-0.00763714453,0.743661761,13.4243116,-0.00555521948,0.0221746489,10.8416252,-0.002907915,-0.01349207,5.675125,38.62133,38.6187973,1.25728548E-08,-1.07414131E-08,1.01788968E-08,6.644865E-08,1,0,4,3865.08228,386.4074,3605.08838,1,0,0,0,0,1,0,0,0,0,1,0,0,0,Grip,9.226228E-07,0.0447947681
196,3.919997,2.919997,-0.00774940755,0.744094133,13.6434059,-0.005613558,0.0217398573,10.9554768,-0.00291692559,-0.0217395835,5.69257736,39.0299339,39.02733,1.53668225E-08,-1.5341648E-08,-5.587847E-08,8.037113E-08,1,0,4,3483.26416,374.268433,3491.83472,1,0,0,0,0,1,0,0,0,0,1,0,0,0,Grip,8.120508E-06,0.0825207457
197,3.939997,2.939997,-0.00786281,0.7445164,13.8647232,-0.005670289,0.0211669,11.0661907,-0.00283655245,-0.0286478549,5.535698,39.4397964,39.4371147,1.76951289E-08,-1.77584862E-08,-6.56333157E-08,9.162277E-08,1,0,4,3757.41968,384.62088,3588.42041,1,0,0,0,0,1,0,0,0,0,1,0,0,0,Grip,1.15982857E-05,0.1366007
198,3.959997,2.959997,-0.007977221,0.7449276,14.088007,-0.0057201013,0.0204293039,11.1634,-0.00249061268,-0.0368798152,4.860449,39.8383636,39.83561,1.76951289E-08,-1.28016113E-08,-1.21783572E-07,9.0825E-08,1,0,4,4139.238,385.77948,3599.23,1,0,0,0,0,1,0,0,0,0,1,0,0,0,Grip,1.34254151E-05,0.0336038321
199,3.979997,2.979997,-0.008092748,0.745317,14.3134718,-0.005775862,0.0193121042,11.2722168,-0.00278803054,-0.055859983,5.440855,40.18831,40.18552,1.62981451E-08,-5.29309929E-09,-1.3925208E-07,8.284712E-08,1,0,4,3757.41968,384.62088,3588.42041,1,0,0,0,0,1,0,0,0,0,1,0,0,0,Grip,9.678018E-06,0.102054268
200,3.999997,2.999997,-0.008209409,0.745679855,14.54115,-0.005832661,0.01800605,11.3830662,-0.00283995178,-0.06530276,5.542469,40.5800438,40.5771942,1.72294676E-08,-2.96939667E-10,6.79700474E-09,8.672848E-08,1,0,4,3998.031,387.0361,3610.95386,1,0,0,0,0,1,0,0,0,0,1,0,0,0,Grip,4.001583E-06,0.08440676
201,4.019997,3.01999712,-0.008327187,0.7460154,14.7710047,-0.005888398,0.01662985,11.4918451,-0.002786843,-0.068809934,5.43894768,40.97909,40.97618,2.00234354E-08,-1.019821E-08,7.18094952E-08,9.983861E-08,1,0,4,3918.49683,386.870483,3609.40869,1,0,0,0,0,1,0,0,0,0,1,0,0,0,Grip,2.24486385E-07,0.1384659
202,4.039997,3.039997,-0.00844595,0.74632585,15.0027838,-0.005937232,0.0152269164,11.5871468,-0.00244171824,-0.0701467,4.76508141,41.37069,41.3677063,2.60770321E-08,-3.17237436E-08,-8.88445655E-08,1.28953033E-07,1,0,4,4300.315,377.3716,3520.78662,1,0,0,0,0,1,0,0,0,0,1,0,0,0,Grip,7.709847E-06,0.03242216
203,4.059997,3.059997,-0.008565808,0.7466034,15.2367,-0.005992031,0.0136113539,11.6940832,-0.002739951,-0.08077812,5.34682274,41.713768,41.7107468,3.02679837E-08,-3.373167E-08,-2.33105169E-07,1.48309041E-07,1,0,4,3918.49683,386.870483,3609.40869,1,0,0,0,0,1,0,0,0,0,1,0,0,0,Grip,2.398315E-05,0.107005924
204,4.079997,3.079997,-0.00868679,0.7468474,15.47281,-0.006048466,0.0119903237,11.8042135,-0.00282174442,-0.08105151,5.5065155,42.098732,42.0956573,3.259629E-08,-2.89149948E-08,-1.96875817E-07,1.58227465E-07,1,0,4,4183.54639,384.976,3591.73364,1,0,0,0,0,1,0,0,0,0,1,0,0,0,Grip,2.55011419E-05,0.07214211
205,4.099997,3.099997,-0.008808889,0.7470609,15.7111,-0.00610446837,0.0105039617,11.913497,-0.00280011445,-0.074318096,5.46417236,42.4951935,42.492054,3.35276127E-08,-2.39217783E-08,-2.60740478E-07,1.61255542E-07,1,0,4,3979.46387,387.05368,3611.118,1,0,0,0,0,1,0,0,0,0,1,0,0,0,Grip,2.18597361E-05,0.1359058
206,4.119997,3.119997,-0.00893199,0.747249961,15.95134,-0.006154164,0.009209539,12.0104733,-0.002484792,-0.0647211447,4.848814,42.888607,42.8854027,3.213063E-08,-1.6520584E-08,-2.47736637E-07,1.53288852E-07,1,0,4,4361.282,372.812225,3478.24854,1,0,0,0,0,1,0,0,0,0,1,0,0,0,Grip,1.80848638E-05,0.0332186967
207,4.139997,3.139997,-0.009056182,0.747412741,16.1937122,-0.00620892458,0.007921699,12.1173363,-0.00273801852,-0.06439197,5.343151,43.23772,43.2344742,3.0733645E-08,-9.077895E-09,-1.73880053E-07,1.45331114E-07,1,0,4,3979.464,387.05368,3611.118,1,0,0,0,0,1,0,0,0,0,1,0,0,0,Grip,1.24895614E-05,0.104898542
208,4.159997,3.159997,-0.009181501,0.7475511,16.4382858,-0.0062655895,0.00679078139,12.2279177,-0.00283324625,-0.056545902,5.52907,43.62242,43.61913,2.98023224E-08,-6.50339871E-09,-1.35362754E-07,1.396528E-07,1,0,4,4321.44727,375.803253,3506.154,1,0,0,0,0,1,0,0,0,0,1,0,0,0,Grip,6.86288831E-06,0.0675827861
209,4.179997,3.179997,-0.009307952,0.74767077,16.6850662,-0.006322329,0.0059264875,12.3386469,-0.00283697154,-0.0432146974,5.536461,44.0205154,44.0171661,3.0733645E-08,-8.819291E-09,-7.252951E-08,1.4272463E-07,1,0,4,4090.77124,386.434662,3605.34253,1,0,0,0,0,1,0,0,0,0,1,0,0,0,Grip,4.916569E-06,0.123285592
210,4.199997,3.199997,-0.009435464,0.7477797,16.93392,-0.0063753915,0.00536630861,12.4422007,-0.00265312847,-0.0280089453,5.1776886,44.419136,44.41573,3.44589353E-08,-2.06012558E-08,-6.332548E-08,1.58692771E-07,1,0,4,4472.58936,364.236,3398.23438,1,0,0,0,0,1,0,0,0,0,1,0,0,0,Grip,6.667384E-06,0.0376116633
211,4.219997,3.219997,-0.00956409,0.74788,17.184948,-0.00643118564,0.00498015061,12.5510845,-0.002789707,-0.0193079,5.444193,44.79193,44.7884827,3.86498868E-08,-2.52489034E-08,-8.15479E-08,1.76449177E-07,1,0,4,4090.77124,386.434662,3605.34253,1,0,0,0,0,1,0,0,0,0,1,0,0,0,Grip,1.557455E-05,0.09856677
212,4.239997,3.239997,-0.009693857,0.747975945,17.4382019,-0.006488491,0.004819283,12.6629162,-0.00286526047,-0.008043391,5.59158325,45.1839142,45.18042,4.284084E-08,-2.536953E-08,-1.08772262E-07,1.9385503E-07,1,0,4,4430.357,367.525635,3428.926,1,0,0,0,0,1,0,0,0,0,1,0,0,0,Grip,1.9088171E-05,0.07018903
213,4.259997,3.259997,-0.00982477,0.7480727,17.69369,-0.00654590363,0.00492701959,12.7749529,-0.00287063885,0.00538683962,5.60183525,45.5865059,45.5829659,4.42378223E-08,-2.26841461E-08,-2.31382515E-07,1.984209E-07,1,0,4,4257.1377,380.534271,3550.29346,1,0,0,0,0,1,0,0,0,0,1,0,0,0,Grip,1.91793642E-05,0.112425834
214,4.279997,3.27999687,-0.009956786,0.748177052,17.9513321,-0.00660106447,0.005296078,12.882597,-0.002758042,0.0184529237,5.382204,45.9898376,45.9862556,4.377216E-08,-1.37138594E-08,-1.73316579E-07,1.94691765E-07,1,0,4,4613.76563,352.9692,3293.118,1,0,0,0,0,1,0,0,0,0,1,0,0,0,Grip,1.71492138E-05,0.04050868
215,4.299997,3.29999685,-0.0100899385,0.748291135,18.2111912,-0.00665794965,0.005811586,12.9936,-0.00284425914,0.0257754,5.550146,46.3773575,46.37374,4.0512532E-08,-1.14993721E-08,-3.345324E-07,1.786541E-07,1,0,4,4231.94727,382.3523,3567.25513,1,0,0,0,0,1,0,0,0,0,1,0,0,0,Grip,1.03676775E-05,0.08734277
216,4.319997,3.31999683,-0.0102242446,0.7484176,18.4733,-0.006715767,0.00647553941,13.10642,-0.00289087184,0.0331976674,5.64098358,46.77697,46.77332,3.49245965E-08,-1.12773773E-08,-4.00631279E-07,1.52686439E-07,1,0,4,4501.491,361.96167,3377.01538,1,0,0,0,0,1,0,0,0,0,1,0,0,0,Grip,8.693525E-06,0.08462707
217,4.339997,3.33999681,-0.0103597082,0.7485598,18.73767,-0.00677373772,0.00728853466,13.2195415,-0.002898532,0.0406497642,5.65609932,47.18312,47.1794319,3.0733645E-08,-1.10673284E-08,-3.14384039E-07,1.332143E-07,1,0,4,4519.338,360.548462,3363.83057,1,0,0,0,0,1,0,0,0,0,1,0,0,0,Grip,8.525697E-06,0.08731246
218,4.359997,3.3599968,-0.0104963379,0.7487201,19.0043144,-0.00683213351,0.008226232,13.3334951,-0.0029197894,0.0468848534,5.69767952,47.5903625,47.5866356,2.65426934E-08,-1.2393595E-09,-2.65558185E-07,1.14065479E-07,1,0,4,4579.644,355.726654,3318.84424,1,0,0,0,0,1,0,0,0,0,1,0,0,0,Grip,8.3669E-06,0.07436773
219,4.379997,3.37999678,-0.010634141,0.7489008,19.27325,-0.006890945,0.009267928,13.4482651,-0.00294058118,0.0520848222,5.738497,48.0005951,47.9968338,2.514571E-08,-3.68342712E-09,-1.41666831E-07,1.07139833E-07,1,0,4,4517.329,360.707855,3365.31763,1,0,0,0,0,1,0,0,0,0,1,0,0,0,Grip,9.36955757E-07,0.0837030262
220,4.39999676,3.39999676,-0.0107731195,0.7491036,19.5444775,-0.006949713,0.0103922626,13.5629482,-0.00293839257,0.0562167279,5.73415756,48.41377,48.4099655,2.142042E-08,-3.76357345E-09,-1.76499682E-07,9.049557E-08,1,0,4,4630.47754,351.611633,3280.45215,1,0,0,0,0,1,0,0,0,0,1,0,0,0,Grip,2.78467087E-06,0.07436821
221,4.41999674,3.41999674,-0.0109132836,0.749329448,19.81802,-0.007009053,0.01156021,13.6787481,-0.00296700746,0.05839737,5.789995,48.8266335,48.82279,1.86264515E-08,-1.26685773E-09,-1.79518E-07,7.80256357E-08,1,0,4,4595.628,354.437469,3306.81641,1,0,0,0,0,1,0,0,0,0,1,0,0,0,Grip,2.84526141E-06,0.07345556
222,4.43999672,3.43999672,-0.01105464,0.7495789,20.0938873,-0.00706870342,0.0127534047,13.7951555,-0.002982514,0.0596597344,5.82036972,49.243515,49.2396278,1.53668225E-08,-1.23937871E-09,-1.22289549E-07,6.382799E-08,1,0,4,4627.477,351.855743,3282.72949,1,0,0,0,0,1,0,0,0,0,1,0,0,0,Grip,9.577444E-07,0.06781105
223,4.4599967,3.4599967,-0.0111972,0.7498518,20.3721066,-0.007129013,0.0139501151,13.91285,-0.0030154828,0.05983552,5.88474274,49.6625862,49.65865,1.35041773E-08,1.28921629E-09,-1.05996371E-07,5.56167841E-08,1,0,4,4621.038,352.379,3287.61133,1,0,0,0,0,1,0,0,0,0,1,0,0,0,Grip,9.36970252E-07,0.0589675754
224,4.47999668,3.47999668,-0.0113409683,0.750148356,20.6526814,-0.0071893977,0.01514471,14.0306931,-0.00301923137,0.05972977,5.89213371,50.0862923,50.0823,1.3038516E-08,-3.47168116E-09,-6.704721E-08,5.32479767E-08,1,0,4,4587.72852,355.075165,3312.766,1,0,0,0,0,1,0,0,0,0,1,0,0,0,Grip,-9.746475E-07,0.05232551
225,4.49999666,3.49999666,-0.011485924,0.750468969,20.9355755,-0.00724873226,0.0163141768,14.1464863,-0.002966728,0.0584733225,5.78966141,50.5105324,50.5064774,1.16415322E-08,-1.05921194E-09,-7.115517E-08,4.71537E-08,1,0,4,4571.8667,356.352356,3324.682,1,0,0,0,0,1,0,0,0,0,1,0,0,0,Grip,2.624591E-06,0.05243919
226,4.51999664,3.51999664,-0.0116320588,0.750811458,21.22077,-0.007307547,0.0173871536,14.2612667,-0.00294074416,0.0536488369,5.7390213,50.92739,50.9232826,8.84756446E-09,1.42754075E-09,-3.62147645E-08,3.55483962E-08,1,0,4,4611.556,353.148376,3294.78955,1,0,0,0,0,1,0,0,0,0,1,0,0,0,Grip,8.007642E-07,0.0519577861
227,4.53999662,3.53999662,-0.0117793605,0.7511734,21.5082417,-0.00736578368,0.018304741,14.37492,-0.0029118266,0.04587937,5.682659,51.3406029,51.33645,8.381903E-09,3.855183E-09,7.253309E-10,3.34111725E-08,1,0,4,4645.49756,350.387726,3269.03345,1,0,0,0,0,1,0,0,0,0,1,0,0,0,Grip,-1.07922074E-06,0.0515784733
228,4.5599966,3.5599966,-0.01192782,0.751550555,21.79797,-0.00742345024,0.01901353,14.48746,-0.00288332812,0.03543943,5.62701225,51.74976,51.7455559,6.98491931E-09,6.183925E-09,-1.492204E-08,2.76263652E-08,1,0,4,4679.877,347.573669,3242.77881,1,0,0,0,0,1,0,0,0,0,1,0,0,0,Grip,-2.914518E-06,0.0512242764
229,4.57999659,3.57999659,-0.0120774237,0.7519376,22.0899334,-0.00748054869,0.0194719452,14.5988932,-0.00285492279,0.02292078,5.57165146,52.1549072,52.1506577,7.450581E-09,1.2648157E-09,2.32295463E-08,2.92432E-08,1,0,4,4714.02539,344.762329,3216.5498,1,0,0,0,0,1,0,0,0,0,1,0,0,0,Grip,-4.675047E-06,0.050896436
230,4.59999657,3.59999657,-0.012228163,0.7523298,22.3841114,-0.007537084,0.01965325,14.7092257,-0.00282677356,0.009065215,5.51662445,52.55607,52.5517731,6.05359674E-09,1.2018504E-09,-2.40198172E-08,2.35818849E-08,1,0,4,4747.973,341.953156,3190.34082,1,0,0,0,0,1,0,0,0,0,1,0,0,0,Grip,-9.562007E-07,0.0505878143
231,4.61999655,3.61999655,-0.0123800244,0.7527207,22.680481,-0.00759306038,0.0195431728,14.8184671,-0.0027988106,-0.005503837,5.46207428,52.9532661,52.948925,6.05359674E-09,-3.6594352E-09,-1.28753346E-08,2.34080471E-08,1,0,4,4781.674,339.1516,3164.20313,1,0,0,0,0,1,0,0,0,0,1,0,0,0,Grip,-9.08598849E-07,0.0502924472
232,4.63999653,3.63999653,-0.0125329979,0.753104448,22.97902,-0.00764848338,0.019142285,14.9266281,-0.00277115032,-0.02004439,5.40804863,53.3465347,53.34215,6.98491931E-09,-3.74212172E-09,-3.50136453E-08,2.68135771E-08,1,0,4,4815.0957,336.362152,3138.17822,1,0,0,0,0,1,0,0,0,0,1,0,0,0,Grip,2.76653282E-06,0.05000656
233,4.65999651,3.65999651,-0.0126870712,0.7534758,23.279707,-0.007703359,0.018463077,15.0337191,-0.00274376944,-0.0339604,5.3545475,53.7359123,53.7314873,9.313226E-09,-1.09187717E-08,-6.717037E-08,3.54967824E-08,1,0,4,4848.199,333.589661,3112.31152,1,0,0,0,0,1,0,0,0,0,1,0,0,0,Grip,2.829044E-06,0.04972516
234,4.67999649,3.67999649,-0.0128422342,0.753829241,23.58252,-0.0077576926,0.0175269,15.1397514,-0.00271669123,-0.04680883,5.30161858,54.1214371,54.1169624,1.21071935E-08,-1.57434457E-08,-1.08213463E-07,4.582264E-08,1,0,4,4880.95752,330.838074,3086.64,1,0,0,0,0,1,0,0,0,0,1,0,0,0,Grip,8.254591E-06,0.0494450554
235,4.69999647,3.69999647,-0.0129984757,0.754160166,23.8874378,-0.007811492,0.0163635388,15.2447386,-0.00268996228,-0.05816808,5.249357,54.5031471,54.4986343,1.25728548E-08,-1.32894442E-08,-1.57082212E-07,4.72573625E-08,1,0,4,4913.34961,328.1106,3061.193,1,0,0,0,0,1,0,0,0,0,1,0,0,0,Grip,1.19020442E-05,0.04916323
236,4.71999645,3.71999645,-0.0131557845,0.7544647,24.1944389,-0.007864763,0.0150080016,15.3486938,-0.00266355928,-0.06777686,5.19776344,54.8810959,54.8765373,1.02445483E-08,-1.30740965E-08,-1.9047485E-07,3.8245215E-08,1,0,4,4945.355,325.4104,3036.001,1,0,0,0,0,1,0,0,0,0,1,0,0,0,Grip,1.004682E-05,0.04887771
237,4.73999643,3.73999643,-0.01331415,0.754739642,24.5035038,-0.007917511,0.0134983435,15.4516287,-0.0026374124,-0.0754829049,5.146742,55.25533,55.25073,1.3038516E-08,-1.287696E-08,-1.85293786E-07,4.83514775E-08,1,0,4,4976.961,322.739868,3011.08545,1,0,0,0,0,1,0,0,0,0,1,0,0,0,Grip,9.884016E-06,0.04858741
238,4.75999641,3.75999641,-0.0134735629,0.7549825,24.81461,-0.0079697445,0.0118737835,15.5535583,-0.00261166133,-0.081228,5.096483,55.62589,55.6212463,1.21071935E-08,-1.018663E-08,-1.862171E-07,4.46035742E-08,1,0,4,5008.16064,320.1008,2986.46362,1,0,0,0,0,1,0,0,0,0,1,0,0,0,Grip,9.734981E-06,0.04829159
239,4.7799964,3.7799964,-0.0136340111,0.755192041,25.1277351,-0.008021467,0.0101733776,15.6544952,-0.002586143,-0.0850203037,5.04684448,55.9928322,55.98815,1.21071935E-08,-5.19417531E-09,-1.02646993E-07,4.431599E-08,1,0,4,5038.953,317.494415,2962.14673,1,0,0,0,0,1,0,0,0,0,1,0,0,0,Grip,7.701092E-06,0.04799004
240,4.79999638,3.79999638,-0.0137954857,0.755367041,25.4428616,-0.008072687,0.008433156,15.7544527,-0.00256099738,-0.0870111,4.99787331,56.3562,56.35149,1.11758709E-08,-5.01132735E-09,-5.01303852E-08,4.0647528E-08,1,0,4,5069.33838,314.921722,2938.144,1,0,0,0,0,1,0,0,0,0,1,0,0,0,Grip,3.92679658E-06,0.04768332
241,4.81999636,3.81999636,-0.0139579745,0.755507231,25.7599716,-0.008123413,0.00668733427,15.8534441,-0.00253627077,-0.08729108,4.9495697,56.7160454,56.7113037,1.11758709E-08,-5.103337E-09,-7.406388E-08,4.039372E-08,1,0,4,5099.32666,312.382751,2914.456,1,0,0,0,0,1,0,0,0,0,1,0,0,0,Grip,3.78856339E-06,0.04737165
242,4.83999634,3.83999634,-0.01412147,0.755613446,26.0790424,-0.008173649,0.00496620871,15.9514828,-0.00251182355,-0.08605628,4.90193367,57.07241,57.067646,1.39698386E-08,-5.26925836E-09,-3.4765737E-08,5.01818143E-08,1,0,4,5128.922,309.878174,2891.08887,1,0,0,0,0,1,0,0,0,0,1,0,0,0,Grip,3.85812245E-06,0.0470559373
243,4.85999632,3.85999632,-0.01428596,0.7556864,26.4000587,-0.008223406,0.00329528,16.04858,-0.002487842,-0.08354644,4.85487,57.4253464,57.4205627,9.313226E-09,1.97859373E-09,-1.693618E-07,3.325213E-08,1,0,4,5158.13574,307.4076,2868.039,1,0,0,0,0,1,0,0,0,0,1,0,0,0,Grip,3.983559E-06,0.0467372239
244,4.8799963,3.8799963,-0.0144514367,0.7557274,26.7229977,-0.008272685,0.00169595261,16.14475,-0.00246395357,-0.0799663737,4.80852127,57.7748947,57.7701,7.450581E-09,4.307142E-09,-3.08620756E-08,2.64432369E-08,1,0,4,5186.98242,304.970642,2845.303,1,0,0,0,0,1,0,0,0,0,1,0,0,0,Grip,-1.49581683E-06,0.0464164168
245,4.89999628,3.89999628,-0.01461789,0.7557382,27.0478439,-0.008321495,0.000185415454,16.2400055,-0.00244048424,-0.0755268559,4.762745,58.12111,58.1163063,4.656613E-09,4.334945E-09,-1.82448E-08,1.64300751E-08,1,0,4,5215.47266,302.567017,2822.87769,1,0,0,0,0,1,0,0,0,0,1,0,0,0,Grip,-3.25619931E-06,0.0460944623
246,4.91999626,3.91999626,-0.01478531,0.755721033,27.3745766,-0.008369843,-0.00122371526,16.3343563,-0.00241738744,-0.07045654,4.71754074,58.4640236,58.4592247,1.86264515E-09,4.417875E-09,-8.49440553E-08,6.534065E-09,1,0,4,5243.61963,300.196136,2800.75781,1,0,0,0,0,1,0,0,0,0,1,0,0,0,Grip,-3.27721818E-06,0.04577239
247,4.93999624,3.93999624,-0.0149536878,0.755677938,27.7031784,-0.008417732,-0.00252285972,16.4278164,-0.002394477,-0.0649572238,4.673004,58.803688,58.7988968,9.313226E-10,6.77396361E-09,4.44340653E-09,3.24844374E-09,1,0,4,5271.43652,297.857483,2778.93872,1,0,0,0,0,1,0,0,0,0,1,0,0,0,Grip,-3.33991329E-06,0.04545123
248,4.959996,3.95999622,-0.0151230143,0.755611062,28.03363,-0.008465171,-0.00370728131,16.5203972,-0.002371939,-0.05922108,4.62904,59.1401443,59.1353645,1.86264515E-09,-5.304167E-10,1.50476911E-08,6.460474E-09,1,0,4,5298.937,295.550354,2757.41382,1,0,0,0,0,1,0,0,0,0,1,0,0,0,Grip,-5.12111637E-06,0.0451317057
249,4.979996,3.9799962,-0.0152932806,0.755522847,28.36592,-0.008512165,-0.00477482053,16.61211,-0.00234972686,-0.05337696,4.58564758,59.4734344,59.4686775,1.86264515E-09,-5.44120471E-10,-7.38109573E-09,6.42480069E-09,1,0,4,5326.133,293.2742,2736.178,1,0,0,0,0,1,0,0,0,0,1,0,0,0,Grip,4.0099502E-07,0.04481443
250,4.999996,3.99999619,-0.0154644782,0.75541544,28.7000237,-0.008558721,-0.00572669832,16.7029667,-0.00232779421,-0.04759389,4.54282761,59.8036079,59.79887,-9.313226E-10,2.08141659E-09,-1.653368E-08,-3.19492344E-09,1,0,4,5353.03271,291.028717,2715.228,1,0,0,0,0,1,0,0,0,0,1,0,0,0,Grip,4.11355074E-07,0.04450026
251,5.019996,4.019996,-0.0156365968,0.7552912,29.0359268,-0.008604842,-0.006565894,16.7929764,-0.00230604783,-0.0419597849,4.50048447,60.13069,60.125988,0,2.10254547E-09,3.29178569E-08,0,1,0,4,5379.65039,288.813049,2694.5564,1,0,0,0,0,1,0,0,0,0,1,0,0,0,Grip,-1.57355089E-06,0.04418943
252,5.039996,4.039996,-0.01580963,0.755152345,29.3736153,-0.008650536,-0.007297442,16.88215,-0.002284674,-0.0365773924,4.45871353,60.4547272,60.4500656,9.313226E-10,-2.700232E-09,3.30167E-09,3.16100635E-09,1,0,4,5405.991,286.627167,2674.1626,1,0,0,0,0,1,0,0,0,0,1,0,0,0,Grip,-1.58952435E-06,0.043882668
253,5.059996,4.059996,-0.0159835685,0.7550008,29.71307,-0.008695807,-0.007927673,16.9705029,-0.00226357952,-0.0315115564,4.41761,60.775753,60.7711334,-9.313226E-10,6.9642403E-09,3.532409E-08,-3.144546E-09,1,0,4,5432.067,284.4703,2654.03955,1,0,0,0,0,1,0,0,0,0,1,0,0,0,Grip,2.04137541E-06,0.0435800627
254,5.079996,4.079996,-0.0161584038,0.7548385,30.0542736,-0.008740661,-0.00846421253,17.05804,-0.00224267133,-0.02682698,4.37688828,61.0938225,61.08925,-2.79396772E-09,6.933871E-09,7.656408E-08,-9.385216E-09,1,0,4,5457.8833,282.342255,2634.18555,1,0,0,0,0,1,0,0,0,0,1,0,0,0,Grip,-5.26496569E-06,0.0432818681
255,5.099996,4.099996,-0.0163341276,0.754667044,30.397213,-0.008785103,-0.00891486648,17.1447773,-0.00222213566,-0.0225326978,4.336834,61.40896,61.40444,-1.86264515E-09,6.77067824E-09,8.786255E-08,-6.22514928E-09,1,0,4,5483.44629,280.242828,2614.59839,1,0,0,0,0,1,0,0,0,0,1,0,0,0,Grip,-5.242006E-06,0.04298812
256,5.119996,4.119996,-0.0165107325,0.7544879,30.741869,-0.008829141,-0.009287694,17.2307224,-0.0022018794,-0.0186413527,4.29725647,61.72121,61.7167473,0,-5.93806448E-10,6.46037961E-08,0,1,0,4,5508.76172,278.1717,2595.27515,1,0,0,0,0,1,0,0,0,0,1,0,0,0,Grip,-5.11863254E-06,0.04269899
257,5.139996,4.139996,-0.016688209,0.75430274,31.0882282,-0.00887278,-0.00959075149,17.3158875,-0.002181949,-0.0151528977,4.258251,62.0306129,62.0262032,0,-5.22024368E-10,8.08344E-09,0,1,0,4,5533.83545,276.128571,2576.21313,1,0,0,0,0,1,0,0,0,0,1,0,0,0,Grip,4.4891766E-07,0.0424144939
258,5.159996,4.159996,-0.01686655,0.7541127,31.4362755,-0.008916024,-0.009832471,17.4002819,-0.002162205,-0.0120859593,4.21972275,62.3372154,62.3328552,1.86264515E-09,-4.67546335E-10,1.03745732E-08,6.133716E-09,1,0,4,5558.671,274.113342,2557.41162,1,0,0,0,0,1,0,0,0,0,1,0,0,0,Grip,3.946504E-07,0.04213456
259,5.179996,4.179996,-0.01704575,0.753918767,31.7859936,-0.008958879,-0.0100205671,17.4839172,-0.00214274041,-0.009404821,4.18176651,62.6410332,62.636734,2.79396772E-09,2.00278349E-09,2.59748383E-08,9.156551E-09,1,0,4,5583.275,272.125641,2538.867,1,0,0,0,0,1,0,0,0,0,1,0,0,0,Grip,3.53465026E-07,0.04185926
260,5.199996,4.199996,-0.0172257964,0.753721952,32.13737,-0.009001348,-0.0101621766,17.5668011,-0.002123462,-0.007080473,4.14419174,62.94212,62.9378853,3.7252903E-09,-2.81148771E-09,5.07783433E-08,1.21511157E-08,1,0,4,5607.64844,270.165436,2520.57861,1,0,0,0,0,1,0,0,0,0,1,0,0,0,Grip,-1.51410427E-06,0.0415882468
261,5.219996,4.219996,-0.0174066834,0.753522933,32.490387,-0.009043439,-0.0102641042,17.6489468,-0.00210455619,-0.00509638339,4.10728455,63.2405,63.23633,2.79396772E-09,-2.82492252E-09,4.4882313E-08,9.070908E-09,1,0,4,5631.796,268.2325,2502.545,1,0,0,0,0,1,0,0,0,0,1,0,0,0,Grip,2.12548457E-06,0.0413216129
262,5.239996,4.239996,-0.0175884068,0.7533225,32.84503,-0.009085157,-0.0103323236,17.7303638,-0.00208588317,-0.003410969,4.070854,63.53623,63.53212,7.450581E-09,-3.30726863E-10,5.14423952E-08,2.407798E-08,1,0,4,5655.71973,266.326752,2484.76465,1,0,0,0,0,1,0,0,0,0,1,0,0,0,Grip,2.13564135E-06,0.0410592034
263,5.259996,4.259996,-0.0177709572,0.7531211,33.20129,-0.009126507,-0.0103723472,17.8110619,-0.00206748955,-0.00200117938,4.03490067,63.82933,63.8252831,1.02445483E-08,-5.186667E-09,2.26929533E-08,3.29571819E-08,1,0,4,5679.424,264.4479,2467.23535,1,0,0,0,0,1,0,0,0,0,1,0,0,0,Grip,2.500295E-07,0.04080087
264,5.279996,4.279996,-0.0179543253,0.7529193,33.55915,-0.009167494,-0.0103888512,17.89105,-0.00204937533,-0.000825198367,3.999424,64.11984,64.11586,1.11758709E-08,-5.35233147E-09,-4.11267678E-08,3.57925032E-08,1,0,4,5702.911,262.5958,2449.95581,1,0,0,0,0,1,0,0,0,0,1,0,0,0,Grip,3.92112042E-06,0.04054653
265,5.299996,4.299996,-0.0181385055,0.752717435,33.9185944,-0.009208124,-0.010386304,17.97034,-0.002031494,0.000127358362,3.9645195,64.4078,64.40388,1.11758709E-08,-2.77801715E-09,-4.48142679E-08,3.56345353E-08,1,0,4,5726.18457,260.770172,2432.923,1,0,0,0,0,1,0,0,0,0,1,0,0,0,Grip,4.04636239E-06,0.04029598
266,5.319996,4.319996,-0.0183234923,0.752515852,34.27961,-0.0092484,-0.0103680128,18.04894,-0.0020137988,0.000914558768,3.92999649,64.6932449,64.6893845,9.313226E-09,1.95854755E-09,-3.975993E-08,2.956609E-08,1,0,4,5749.245,258.971039,2416.1377,1,0,0,0,0,1,0,0,0,0,1,0,0,0,Grip,2.10018084E-06,0.0400492176
267,5.339996,4.339996,-0.0185092781,0.7523148,34.64218,-0.009288328,-0.0103375223,18.1268635,-0.001996383,0.00152452849,3.896141,64.9762039,64.97241,9.313226E-09,1.91880467E-09,2.79704153E-08,2.943896E-08,1,0,4,5772.09863,257.1979,2399.59473,1,0,0,0,0,1,0,0,0,0,1,0,0,0,Grip,-1.48066192E-06,0.0398060419
268,5.359996,4.359996,-0.0186958555,0.752114534,35.0063,-0.009327913,-0.0102970377,18.2041168,-0.00197924674,0.00202422962,3.862667,65.25673,65.25299,8.381903E-09,1.85700044E-09,1.177578E-08,2.63825921E-08,1,0,4,5794.74561,255.450775,2383.29443,1,0,0,0,0,1,0,0,0,0,1,0,0,0,Grip,-1.45061631E-06,0.03956635
269,5.379996,4.379996,-0.0188832171,0.7519151,35.3719521,-0.00936716,-0.0102491342,18.28071,-0.00196234323,0.0023951754,3.82967,65.5348358,65.5311661,9.313226E-09,-1.799474E-09,7.53500551E-09,2.91911384E-08,1,0,4,5817.19,253.729248,2367.233,1,0,0,0,0,1,0,0,0,0,1,0,0,0,Grip,-1.40389227E-06,0.03933015
270,5.399996,4.399996,-0.0190713573,0.7517166,35.73912,-0.009406073,-0.0101952581,18.3566532,-0.00194567256,0.002693804,3.79714966,65.81058,65.80696,1.02445483E-08,-1.71398207E-09,1.47946047E-08,3.19773719E-08,1,0,4,5839.43457,252.033112,2351.40845,1,0,0,0,0,1,0,0,0,0,1,0,0,0,Grip,1.36040228E-06,0.0390971527
271,5.419996,4.419996,-0.0192602668,0.7515193,36.1077957,-0.009444659,-0.0101367943,18.4319534,-0.00192928128,0.00292318873,3.76501083,66.08397,66.0804138,1.02445483E-08,-2.94270786E-09,-6.187844E-08,3.18467E-08,1,0,4,5861.481,250.3622,2335.819,1,0,0,0,0,1,0,0,0,0,1,0,0,0,Grip,1.2957704E-06,0.0388674065
272,5.439996,4.439996,-0.0194499418,0.751322865,36.4779625,-0.009482919,-0.0100752031,18.50662,-0.0019130297,0.00307955779,3.73334885,66.35505,66.3515549,7.450581E-09,2.99291969E-09,-3.457063E-08,2.30677664E-08,1,0,4,5883.333,248.716156,2320.462,1,0,0,0,0,1,0,0,0,0,1,0,0,0,Grip,2.224687E-06,0.0386409052
273,5.45999575,4.45999575,-0.0196403749,0.7511281,36.8496056,-0.009520861,-0.0100107221,18.5806656,-0.00189710408,0.00322405249,3.702259,66.6238556,66.6204147,5.58793545E-09,2.96904545E-09,-3.980112E-08,1.72318639E-08,1,0,4,5904.99365,247.0947,2305.33423,1,0,0,0,0,1,0,0,0,0,1,0,0,0,Grip,-2.26264729E-06,0.03841742
274,5.47999573,4.47999573,-0.01983156,0.750934243,37.22272,-0.009558489,-0.009944885,18.6540947,-0.00188136473,0.00329185277,3.67145538,66.89041,66.88703,9.313226E-10,4.37903269E-09,-8.511905E-08,2.86066926E-09,1,0,4,5926.46436,245.497665,2290.43433,1,0,0,0,0,1,0,0,0,0,1,0,0,0,Grip,-2.24459836E-06,0.0381971523
275,5.49999571,4.49999571,-0.0200234931,0.7507417,37.59729,-0.009595804,-0.009877559,18.7269211,-0.00186576508,0.003366312,3.64131927,67.15476,67.1514359,3.7252903E-09,2.99831271E-09,7.279168E-08,1.13981669E-08,1,0,4,5947.75146,243.924484,2275.75684,1,0,0,0,0,1,0,0,0,0,1,0,0,0,Grip,-3.31054866E-06,0.0379797854
276,5.51999569,4.51999569,-0.020216167,0.7505504,37.97331,-0.009632815,-0.009809264,18.79915,-0.001850538,0.00341474079,3.61146927,67.41693,67.4136658,4.656613E-09,-1.97735939E-09,4.77075623E-09,1.41929535E-08,1,0,4,5968.85449,242.375122,2261.30176,1,0,0,0,0,1,0,0,0,0,1,0,0,0,Grip,-2.26672432E-06,0.0377653763
277,5.53999567,4.53999567,-0.0204095747,0.7503605,38.3507538,-0.009669525,-0.009740195,18.8707924,-0.0018354971,0.00345343724,3.582096,67.67696,67.67374,4.656613E-09,-7.482239E-10,-5.39186473E-09,1.4139057E-08,1,0,4,5989.778,240.849152,2247.0647,1,0,0,0,0,1,0,0,0,0,1,0,0,0,Grip,1.49488369E-06,0.0375538543
278,5.55999565,4.55999565,-0.0206037089,0.75017184,38.72962,-0.009705938,-0.009670694,18.9418545,-0.00182068907,0.003475044,3.5531044,67.93487,67.9317,1.86264515E-09,5.255435E-10,-5.3124122E-08,5.6344005E-09,1,0,4,6010.524,239.346359,2233.044,1,0,0,0,0,1,0,0,0,0,1,0,0,0,Grip,5.656573E-07,0.0373452231
279,5.57999563,4.57999563,-0.0207985658,0.7499846,39.1098976,-0.009742059,-0.009600642,19.0123444,-0.00180602074,0.003502611,3.52449417,68.1907,68.18758,9.313226E-10,5.733525E-10,-4.487847E-08,2.80675283E-09,1,0,4,6031.09668,237.866257,2219.235,1,0,0,0,0,1,0,0,0,0,1,0,0,0,Grip,-3.97310885E-07,0.0371393375
280,5.59999561,4.59999561,-0.02099414,0.7497985,39.4915733,-0.009777891,-0.009530411,19.0822716,-0.0017916318,0.00351155177,3.49636078,68.44446,68.44139,-2.79396772E-09,1.7754237E-09,-7.210186E-08,-8.389394E-09,1,0,4,6051.497,236.408783,2205.63721,1,0,0,0,0,1,0,0,0,0,1,0,0,0,Grip,-4.3345446E-07,0.0369363837
281,5.61999559,4.61999559,-0.0211904235,0.7496139,39.8746338,-0.009813439,-0.009459406,19.1516457,-0.00177738257,0.00355024822,3.46870422,68.6962,68.69318,-9.313226E-10,-6.031841E-10,5.923245E-09,-2.78633272E-09,1,0,4,6071.73,234.973389,2192.24536,1,0,0,0,0,1,0,0,0,0,1,0,0,0,Grip,-1.34222023E-06,0.0367360078
282,5.63999557,4.63999557,-0.0213874131,0.7494306,40.2590752,-0.009848706,-0.009388236,19.2204723,-0.00176336616,0.00355849043,3.44133377,68.9459457,68.94297,0,-4.176567E-09,-2.28465025E-09,0,1,0,4,6091.797,233.5599,2179.05786,1,0,0,0,0,1,0,0,0,0,1,0,0,0,Grip,4.56007172E-07,0.0365385264
283,5.65999556,4.65999556,-0.0215851,0.749248743,40.64488,-0.009883698,-0.00931662,19.2887611,-0.00174958259,0.0035807956,3.41444016,69.19372,69.1907959,9.313226E-10,-4.16085966E-09,1.00839892E-09,2.76652168E-09,1,0,4,6111.702,232.167923,2166.071,1,0,0,0,0,1,0,0,0,0,1,0,0,0,Grip,3.15748457E-06,0.0363418572
284,5.67999554,4.67999554,-0.0217834823,0.749068141,41.0320358,-0.009918418,-0.009244766,19.35652,-0.00173598528,0.00359271653,3.387928,69.43956,69.43668,9.313226E-10,-1.66808689E-09,1.33044411E-08,2.756835E-09,1,0,4,6131.44629,230.797226,2153.28271,1,0,0,0,0,1,0,0,0,0,1,0,0,0,Grip,3.14560975E-06,0.0361500829
285,5.69999552,4.69999552,-0.0219825543,0.7488891,41.42054,-0.009952869,-0.009172435,19.4237556,-0.00172257423,0.00361655839,3.36179733,69.68348,69.68066,4.656613E-09,-1.58485536E-09,3.51951535E-08,1.373645E-08,1,0,4,6151.039,229.447083,2140.68628,1,0,0,0,0,1,0,0,0,0,1,0,0,0,Grip,1.26107363E-06,0.0359604545
286,5.7199955,4.7199955,-0.0221823081,0.7487113,41.8103752,-0.009987057,-0.00909988,19.4904766,-0.001709396,0.00362773426,3.33604813,69.92553,69.92275,3.7252903E-09,-2.86327273E-09,1.91345E-08,1.09515339E-08,1,0,4,6170.471,228.117981,2128.286,1,0,0,0,0,1,0,0,0,0,1,0,0,0,Grip,1.19815058E-06,0.0357735455
287,5.73999548,4.73999548,-0.0223827418,0.748534858,42.2015343,-0.0100209853,-0.0090267295,19.55669,-0.00169640407,0.00365753658,3.31068039,70.1657257,70.16299,7.450581E-09,-2.88718627E-09,1.30509772E-08,2.1828896E-08,1,0,4,6189.753,226.809113,2116.07446,1,0,0,0,0,1,0,0,0,0,1,0,0,0,Grip,2.16463422E-06,0.0355891325
288,5.75999546,4.75999546,-0.02258385,0.748359859,42.59401,-0.0100546582,-0.008953013,19.6224022,-0.001683645,0.00368580222,3.28559875,70.4041,70.4014,5.58793545E-09,7.443776E-10,-7.98447957E-08,1.63168323E-08,1,0,4,6208.885,225.520309,2104.05029,1,0,0,0,0,1,0,0,0,0,1,0,0,0,Grip,2.18271271E-06,0.03540726
289,5.77999544,4.77999544,-0.0227856245,0.74818635,42.9877853,-0.0100880768,-0.008878791,19.68762,-0.0016709324,0.0037111342,3.26089859,70.64066,70.638,6.519258E-09,-1.59608859E-09,-2.3649E-08,1.89732337E-08,1,0,4,6227.86963,224.251221,2092.21,1,0,0,0,0,1,0,0,0,0,1,0,0,0,Grip,-5.62749449E-07,0.0352279171
290,5.79999542,4.79999542,-0.0229880624,0.7480142,43.38286,-0.0101212468,-0.008804121,19.7523537,-0.00165849924,0.003733486,3.23667526,70.87544,70.8728256,8.381903E-09,-3.97601463E-09,-2.32950326E-09,2.43141951E-08,1,0,4,6246.70947,223.001617,2080.55151,1,0,0,0,0,1,0,0,0,0,1,0,0,0,Grip,1.206643E-06,0.03505108
291,5.8199954,4.8199954,-0.02319116,0.7478434,43.7792168,-0.0101541718,-0.008728945,19.8166065,-0.00164625235,0.003758818,3.21264267,71.10848,71.10591,8.381903E-09,-1.55141777E-09,-6.973314E-08,2.42353426E-08,1,0,4,6265.407,221.771179,2069.07178,1,0,0,0,0,1,0,0,0,0,1,0,0,0,Grip,3.005867E-06,0.0348767266
292,5.83999538,4.83999538,-0.0233949088,0.747674346,44.1768456,-0.0101868547,-0.008653158,19.8803883,-0.00163414516,0.00378931873,3.189087,71.3398,71.337265,6.519258E-09,-2.66093658E-09,-3.287421E-08,1.87892226E-08,1,0,4,6283.96631,220.55957,2057.76782,1,0,0,0,0,1,0,0,0,0,1,0,0,0,Grip,1.17287175E-06,0.03470475
293,5.85999537,4.85999537,-0.023599308,0.7475064,44.57574,-0.0102192992,-0.00857749,19.9437065,-0.00162222423,0.00378340483,3.16591263,71.56941,71.56691,7.450581E-09,-2.67198641E-09,1.35594647E-08,2.14052118E-08,1,0,4,6302.3877,219.366547,2046.63721,1,0,0,0,0,1,0,0,0,0,1,0,0,0,Grip,2.011668E-06,0.0345352851
294,5.87999535,4.87999535,-0.02380435,0.7473401,44.9759,-0.010251509,-0.008500899,20.006567,-0.00161048956,0.00382955186,3.14302444,71.7973557,71.7949,9.313226E-09,-1.37885869E-09,2.03269455E-08,2.667243E-08,1,0,4,6320.67529,218.191757,2035.67676,1,0,0,0,0,1,0,0,0,0,1,0,0,0,Grip,2.02002161E-06,0.034368
295,5.89999533,4.89999533,-0.0240100324,0.747175336,45.3773,-0.0102834869,-0.008424055,20.0689735,-0.0015988946,0.00384221785,3.120327,72.02365,72.02123,1.02445483E-08,-1.3661634E-09,-1.48725974E-08,2.92484188E-08,1,0,4,6338.828,217.03511,2024.8855,1,0,0,0,0,1,0,0,0,0,1,0,0,0,Grip,1.04241713E-06,0.03420317
296,5.91999531,4.91999531,-0.0242163483,0.74701196,45.77994,-0.0103152366,-0.008346973,20.1309357,-0.00158748589,0.00385409221,3.09810638,72.2483139,72.2459259,9.313226E-09,3.449367E-09,7.635109E-09,2.65076139E-08,1,0,4,6356.85254,215.8961,2014.25879,1,0,0,0,0,1,0,0,0,0,1,0,0,0,Grip,1.03281945E-06,0.0340407
297,5.93999529,4.93999529,-0.0244232938,0.7468501,46.183815,-0.010346761,-0.008269562,20.192461,-0.00157621689,0.00387053,3.07626724,72.47138,72.46903,1.11758709E-08,8.88885743E-10,8.609407E-08,3.17122E-08,1,0,4,6374.74854,214.7746,2003.79541,1,0,0,0,0,1,0,0,0,0,1,0,0,0,Grip,-2.6077214E-06,0.03388037
298,5.95999527,4.95999527,-0.0246308669,0.7466897,46.58891,-0.0103780655,-0.008191854,20.2535534,-0.00156522729,0.00388543122,3.05461884,72.69287,72.69056,9.313226E-09,-1.50792E-09,-1.728751E-08,2.63471041E-08,1,0,4,6392.517,213.670364,1993.49316,1,0,0,0,0,1,0,0,0,0,1,0,0,0,Grip,-6.719976E-07,0.0337223969
299,5.97999525,4.97999525,-0.0248390622,0.7465308,46.9952126,-0.0104091512,-0.008113788,20.3142185,-0.00155428424,0.003903266,3.03325653,72.9128,72.91052,1.11758709E-08,-3.991006E-09,-2.01020534E-08,3.152209E-08,1,0,4,6410.162,212.583084,1983.34912,1,0,0,0,0,1,0,0,0,0,1,0,0,0,Grip,1.13998749E-06,0.0335666165
300,5.999995,4.999995,-0.0250478741,0.7463734,47.4027252,-0.0104400227,-0.008035514,20.374464,-0.001543574,0.00391374342,3.0122757,73.1311951,73.12895,1.11758709E-08,-5.253126E-09,-6.04594561E-08,3.142887E-08,1,0,4,6427.685,211.5125,1973.36084,1,0,0,0,0,1,0,0,0,0,1,0,0,0,Grip,3.0172007E-06,0.0334130451
301,6.019995,5.019995,-0.0252572969,0.7462176,47.8114357,-0.0104706828,-0.007957061,20.4342976,-0.00153300352,0.00392263755,2.99167633,73.34808,73.34586,1.3038516E-08,-3.93820354E-09,-4.4875474E-08,3.655963E-08,1,0,4,6445.08838,210.458328,1963.52563,1,0,0,0,0,1,0,0,0,0,1,0,0,0,Grip,3.971363E-06,0.0332616232
302,6.039995,5.039995,-0.02546733,0.746063352,48.22133,-0.0105011342,-0.007878519,20.493721,-0.00152257271,0.003927108,2.97117233,73.5634842,73.5613,1.02445483E-08,-1.4635877E-09,-1.20473516E-07,2.86421162E-08,1,0,4,6462.373,209.42041,1953.84216,1,0,0,0,0,1,0,0,0,0,1,0,0,0,Grip,2.97728184E-06,0.03311246
303,6.059995,5.059995,-0.02567797,0.7459104,48.63241,-0.0105313789,-0.00780009525,20.5527439,-0.001512235,0.00392117072,2.95114517,73.7774048,73.77525,8.381903E-09,-1.59111058E-10,-4.50404727E-08,2.33671482E-08,1,0,4,6479.543,208.398361,1944.30664,1,0,0,0,0,1,0,0,0,0,1,0,0,0,Grip,1.10647227E-06,0.0329652354
304,6.079995,5.079995,-0.0258892085,0.7457591,49.0446548,-0.01056142,-0.00772127,20.611372,-0.001502037,0.003941264,2.931404,73.98989,73.98777,1.02445483E-08,-1.51844773E-10,3.76388272E-08,2.84786E-08,1,0,4,6496.596,207.392227,1934.91968,1,0,0,0,0,1,0,0,0,0,1,0,0,0,Grip,1.2028795E-07,0.0328201354
305,6.099995,5.099995,-0.0261010434,0.7456094,49.458065,-0.01059126,-0.007642474,20.6696072,-0.00149202533,0.003939797,2.91175842,74.20095,74.19886,6.519258E-09,8.121248E-09,-1.77595876E-08,1.80716757E-08,1,0,4,6513.53857,206.401428,1925.67578,1,0,0,0,0,1,0,0,0,0,1,0,0,0,Grip,1.14794645E-07,0.03267712
306,6.119995,5.119995,-0.02631347,0.7454611,49.8726349,-0.0106209032,-0.007563768,20.727459,-0.00148215331,0.00393530354,2.89258957,74.4106,74.40854,1.86264515E-09,8.093359E-09,3.131706E-08,5.14892262E-09,1,0,4,6530.37,205.425919,1916.57446,1,0,0,0,0,1,0,0,0,0,1,0,0,0,Grip,-6.139663E-06,0.0325361341
307,6.139995,5.139995,-0.0265264884,0.7453146,50.2883568,-0.0106503526,-0.00748495758,20.7849312,-0.00147246756,0.003940519,2.87361145,74.618866,74.61683,-9.313226E-10,8.040093E-09,-7.960671E-09,-2.56734167E-09,1,0,4,6547.093,204.465408,1907.61316,1,0,0,0,0,1,0,0,0,0,1,0,0,0,Grip,-6.118579E-06,0.0323971361
308,6.159995,5.159995,-0.0267400891,0.7451692,50.7052155,-0.0106796091,-0.00740660867,20.84203,-0.00146282837,0.00391744543,2.85491943,74.82577,74.82376,0,4.34028546E-09,5.33014841E-08,0,1,0,4,6563.709,203.5197,1898.78992,1,0,0,0,0,1,0,0,0,0,1,0,0,0,Grip,-6.07831E-06,0.032260187
309,6.179995,5.179995,-0.0269542728,0.7450257,51.12321,-0.0107086785,-0.0073279473,20.89876,-0.00145346858,0.00393306836,2.83651352,75.03132,75.02934,-2.79396772E-09,4.185594E-09,-1.85624121E-08,-7.660068E-09,1,0,4,6580.22,202.588516,1890.10217,1,0,0,0,0,1,0,0,0,0,1,0,0,0,Grip,-3.28125566E-06,0.03212513
310,6.199995,5.199995,-0.0271690339,0.744883537,51.5423279,-0.0107375616,-0.0072497474,20.95513,-0.00144415535,0.003909995,2.818489,75.23555,75.2336,-2.79396772E-09,4.160534E-09,5.86436855E-08,-7.639459E-09,1,0,4,6596.626,201.6718,1881.54944,1,0,0,0,0,1,0,0,0,0,1,0,0,0,Grip,-3.164309E-06,0.0319920927
311,6.219995,5.219995,-0.02738437,0.7447429,51.96257,-0.0107662622,-0.00717154751,21.01114,-0.00143502839,0.003909995,2.80056,75.43848,75.436554,-4.656613E-09,4.147524E-09,-1.70868319E-09,-1.26984849E-08,1,0,4,6612.93262,200.769043,1873.127,1,0,0,0,0,1,0,0,0,0,1,0,0,0,Grip,-3.14536373E-06,0.0318608768
312,6.239995,5.239995,-0.0276002754,0.7446038,52.3839264,-0.0107947821,-0.007093437,21.0668,-0.00142599456,0.0039055245,2.782917,75.64012,75.6382141,-5.58793545E-09,2.87156388E-09,-8.264367E-09,-1.51979158E-08,1,0,4,6629.13867,199.880264,1864.83484,1,0,0,0,0,1,0,0,0,0,1,0,0,0,Grip,-3.13552823E-06,0.0317315236
313,6.259995,5.259995,-0.0278167445,0.7444663,52.806385,-0.0108231241,-0.00701559475,21.12211,-0.00141710043,0.00389211345,2.76556015,75.84049,75.8386154,-7.450581E-09,2.93334357E-09,-8.239559E-09,-2.02108179E-08,1,0,4,6645.24561,199.005219,1856.6709,1,0,0,0,0,1,0,0,0,0,1,0,0,0,Grip,-2.17090223E-06,0.03160404
314,6.279995,5.279995,-0.02803378,0.744330049,53.2299461,-0.0108512891,-0.00693822931,21.1770782,-0.00140825287,0.0038682716,2.748394,76.03961,76.0377655,-9.313226E-09,5.2945E-09,4.2956998E-08,-2.51979362E-08,1,0,4,6661.25537,198.143692,1848.633,1,0,0,0,0,1,0,0,0,0,1,0,0,0,Grip,-2.21760774E-06,0.03147845
315,6.299995,5.299995,-0.0282513741,0.744195461,53.6546,-0.010879281,-0.00686072931,21.23171,-0.00139959157,0.0038750004,2.73160934,76.2374954,76.23567,-1.21071935E-08,5.2834217E-09,1.0304268E-07,-3.26730181E-08,1,0,4,6677.171,197.29541,1840.71875,1,0,0,0,0,1,0,0,0,0,1,0,0,0,Grip,-4.00264162E-06,0.03135448
316,6.319995,5.319995,-0.0284695253,0.7440624,54.0803337,-0.0109071024,-0.00678354269,21.2860088,-0.00139107,0.003859331,2.71492,76.434166,76.43237,-1.3038516E-08,5.27197042E-09,7.26207361E-08,-3.5096555E-08,1,0,4,6692.99,196.460342,1832.92786,1,0,0,0,0,1,0,0,0,0,1,0,0,0,Grip,-3.99426654E-06,0.0312324781
317,6.339995,5.339995,-0.0286882278,0.7439308,54.50715,-0.0109347561,-0.006706743,21.33998,-0.00138268806,0.00383998267,2.69851685,76.62965,76.62787,-1.49011612E-08,4.049726E-09,4.91049263E-08,-4.00088958E-08,1,0,4,6708.719,195.6381,1825.25659,1,0,0,0,0,1,0,0,0,0,1,0,0,0,Grip,-3.98560951E-06,0.0311121326
318,6.359995,5.359995,-0.0289074816,0.743800759,54.93504,-0.0109622441,-0.00663031545,21.3936272,-0.00137439929,0.00382137951,2.68239975,76.82394,76.82219,-1.58324838E-08,1.01162891E-08,7.9061266E-08,-4.240284E-08,1,0,4,6724.357,194.828613,1817.70422,1,0,0,0,0,1,0,0,0,0,1,0,0,0,Grip,-3.06159268E-06,0.03099367
319,6.379995,5.379995,-0.0291272812,0.743672132,55.3639946,-0.0109895673,-0.00655429065,21.4469547,-0.00136615708,0.00380123965,2.666378,77.01707,77.01534,-1.58324838E-08,7.549806E-09,1.11322088E-07,-4.229739E-08,1,0,4,6739.90625,194.03157,1810.268,1,0,0,0,0,1,0,0,0,0,1,0,0,0,Grip,-7.647915E-06,0.0308767557
320,6.399995,5.399995,-0.0293476246,0.743544936,55.79401,-0.01101673,-0.00647868263,21.49997,-0.00135814771,0.00378040131,2.65073776,77.2090454,77.20734,-1.76951289E-08,5.17074339E-09,1.06069088E-07,-4.715697E-08,1,0,4,6755.366,193.246948,1802.94763,1,0,0,0,0,1,0,0,0,0,1,0,0,0,Grip,-5.707653E-06,0.0307616442
321,6.419995,5.419995,-0.0295685064,0.7434193,56.22508,-0.0110437348,-0.00640329765,21.5526752,-0.00135023147,0.00376924872,2.63528824,77.3999,77.39822,-1.67638063E-08,2.65382827E-09,1.05729718E-07,-4.45657626E-08,1,0,4,6770.74,192.4745,1795.74084,1,0,0,0,0,1,0,0,0,0,1,0,0,0,Grip,-3.909082E-06,0.0306480341
322,6.439995,5.439995,-0.0297899246,0.7432951,56.657196,-0.0110705839,-0.00632846449,21.6050758,-0.00134245493,0.00374165829,2.62002945,77.5896454,77.58798,-1.67638063E-08,2.690045E-09,6.342742E-08,-4.44576571E-08,1,0,4,6786.028,191.714081,1788.64636,1,0,0,0,0,1,0,0,0,0,1,0,0,0,Grip,-2.00629415E-06,0.0305362586
323,6.459995,5.459995,-0.030011395,0.743182659,57.08941,-0.011071411,-0.00625395868,21.6066933,-4.13507223E-05,0.0037252903,0.08087158,77.77828,77.77664,-1.58324838E-08,3.25702731E-09,8.834271E-08,-4.19845776E-08,1,0,4,6801.2334,190.965363,147.5905,2,1,0,0,0,1,0,0,0,0,1,0,0,0,Grip,-2.033674E-06,0.00254174368
324,6.479995,5.479995,-0.0302327741,0.7430558,57.52145,-0.0110651553,-0.007478433,21.5944862,0.0003127847,-0.0612237267,-0.610351563,77.78411,77.7825851,-1.67638063E-08,3.23243854E-09,3.706157E-08,-4.4479286E-08,1,0,4,6419.415,212.016617,163.860291,2,1,0,0,0,1,0,0,0,0,1,0,0,0,Grip,-2.46231252E-06,0.00286732055
325,6.49999475,5.49999475,-0.0304540657,0.742870331,57.9533157,-0.0110595273,-0.0107680233,21.5835075,0.000281399116,-0.164479509,-0.548934937,77.7401657,77.73882,-1.58324838E-08,2.983365E-09,1.21752521E-07,-4.20294768E-08,1,0,4,6037.59668,237.400787,183.478836,2,1,0,0,0,1,0,0,0,0,1,0,0,0,Grip,-2.44372336E-06,0.00331318146
326,6.51999474,5.51999474,-0.0306752678,0.7425804,58.38501,-0.0110543929,-0.01620799,21.5734921,0.000256719068,-0.271998316,-0.5007744,77.7006454,77.69949,-1.39698386E-08,1.85497506E-09,1.19472944E-07,-3.71019659E-08,1,0,4,5655.77832,266.3221,205.831116,2,1,0,0,0,1,0,0,0,0,1,0,0,0,Grip,-2.25542385E-06,0.00382634858
327,6.53999472,5.53999472,-0.030896388,0.7421466,58.81654,-0.011049808,-0.0235041045,21.5645485,0.000229245052,-0.364805758,-0.4471779,77.6646042,77.66361,-1.21071935E-08,1.65534708E-09,1.08601576E-07,-3.21683054E-08,1,0,4,5273.96,297.645569,230.039932,2,1,0,0,0,1,0,0,0,0,1,0,0,0,Grip,-1.40236114E-06,0.00438392255
328,6.5599947,5.5599947,-0.0311174262,0.7415404,59.2479172,-0.0110457959,-0.0321389139,21.5567188,0.000200606883,-0.4317405,-0.3914833,77.63243,77.6315842,-1.49011612E-08,1.14106269E-09,8.692302E-09,-3.960606E-08,1,0,4,4892.1416,329.897034,254.965988,2,1,0,0,0,1,0,0,0,0,1,0,0,0,Grip,-1.25144231E-06,0.00495384727
329,6.57999468,5.57999468,-0.0313383937,0.7407459,59.6791534,-0.0110423481,-0.0414943658,21.5499916,0.000172387809,-0.4677726,-0.336360931,77.60428,77.6035461,-1.39698386E-08,1.43686762E-09,3.46253479E-08,-3.71422075E-08,1,0,4,4510.323,361.263123,279.207733,2,1,0,0,0,1,0,0,0,0,1,0,0,0,Grip,-8.626434E-07,0.00549769541
330,6.59999466,5.59999466,-0.0315598734,0.7397487,60.1113853,-0.0110702123,-0.0509426743,21.604372,-0.001393212,-0.472415447,2.71902084,77.58012,77.5794754,-1.49011612E-08,2.658542E-09,2.9006209E-08,-3.95185928E-08,1,0,4,4471.2627,364.339966,2346.54785,2,0,0,0,0,1,0,0,0,0,1,0,0,0,Grip,-1.08627194E-06,0.0464887135
331,6.61999464,5.61999464,-0.03178203,0.738587,60.5449371,-0.0111065032,-0.05844613,21.6751976,-0.00181454234,-0.375172883,3.54127884,77.77596,77.7753143,-1.49011612E-08,1.43078727E-09,2.79192172E-08,-3.93894624E-08,1,0,4,4832.87158,334.874481,2156.774,2,0,0,0,0,1,0,0,0,0,1,0,0,0,Grip,-2.00985778E-06,0.0415300354
332,6.63999462,5.63999462,-0.0320048556,0.737330556,60.9797935,-0.0111418273,-0.06263836,21.7441368,-0.0017662067,-0.209611282,3.44696045,78.0310059,78.03028,-1.67638063E-08,6.18908436E-09,3.39110571E-08,-4.417268E-08,1,0,4,4802.25928,337.4347,2173.26318,2,0,0,0,0,1,0,0,0,0,1,0,0,0,Grip,-1.08167512E-06,0.0401792824
333,6.6599946,5.6599946,-0.0322283581,0.7360577,61.4159737,-0.0111771394,-0.0630502552,21.813055,-0.00176560134,-0.0205948949,3.44591141,78.27923,78.27842,-1.76951289E-08,6.151305E-09,1.01335075E-07,-4.64794532E-08,1,0,4,4807.23535,337.0191,2170.58643,2,0,0,0,0,1,0,0,0,0,1,0,0,0,Grip,-4.678948E-06,0.0386343524
334,6.67999458,5.67999458,-0.0324525423,0.7348448,61.85349,-0.0112122959,-0.05974286,21.88167,-0.00175782479,0.165369734,3.430748,78.5273361,78.5264359,-1.76951289E-08,3.70149866E-09,1.07664192E-07,-4.633377E-08,1,0,4,4809.67,336.815643,2169.27612,2,0,0,0,0,1,0,0,0,0,1,0,0,0,Grip,-4.65038647E-06,0.03732588
335,6.69999456,5.69999456,-0.032677412,0.73376,62.29234,-0.0112472726,-0.0531432,21.9499321,-0.00174883753,0.329983056,3.413105,78.7743149,78.77334,-1.86264515E-08,3.65915587E-09,5.437966E-08,-4.86207838E-08,1,0,4,4813.8916,336.462769,2167.00342,2,0,0,0,0,1,0,0,0,0,1,0,0,0,Grip,-2.79833284E-06,0.0362432525
336,6.71999454,5.71999454,-0.03290297,0.7328579,62.7325363,-0.0112820454,-0.04389778,22.0177975,-0.00173863955,0.462270916,3.39326859,79.02,79.01897,-2.142042E-08,4.84490137E-09,8.728899E-08,-5.57416264E-08,1,0,4,4819.79639,335.969,2163.82324,2,0,0,0,0,1,0,0,0,0,1,0,0,0,Grip,-2.76632181E-06,0.0353846252
337,6.73999453,5.73999453,-0.03312922,0.7321774,63.1740723,-0.0113165993,-0.0327566452,22.0852318,-0.00172769651,0.557056844,3.37171555,79.26424,79.26318,-2.32830644E-08,4.790924E-09,-1.37461935E-08,-6.040377E-08,1,0,4,4827.409,335.331879,2159.72,2,0,0,0,0,1,0,0,0,0,1,0,0,0,Grip,-3.66274526E-06,0.0347315669
338,6.75999451,5.75999451,-0.0333561525,0.7317424,63.6169472,-0.0113509251,-0.0204859953,22.1522217,-0.00171628781,0.6135325,3.349495,79.50693,79.50588,-2.514571E-08,4.70852424E-09,8.620465E-09,-6.503882E-08,1,0,4,4836.60449,334.561737,2154.75977,2,0,0,0,0,1,0,0,0,0,1,0,0,0,Grip,-3.6219385E-06,0.0342599526
339,6.77999449,5.77999449,-0.03358377,0.731561661,64.06116,-0.01138502,-0.00780769158,22.21876,-0.00170473941,0.6339152,3.32689285,79.74804,79.74702,-2.70083547E-08,1.156108E-09,-2.45824356E-08,-6.964731E-08,1,0,4,4847.20361,333.6732,2149.03687,2,0,0,0,0,1,0,0,0,0,1,0,0,0,Grip,-3.55964426E-06,0.03394374
340,6.79999447,5.79999447,-0.0338120721,0.7316315,64.5067,-0.0114188837,0.004643251,22.28485,-0.001693191,0.62254715,3.30448151,79.98755,79.98656,-2.79396772E-08,3.61667118E-09,3.995067E-08,-7.1835224E-08,1,0,4,4859.007,332.682678,2142.65747,2,0,0,0,0,1,0,0,0,0,1,0,0,0,Grip,-8.740176E-07,0.03375718
341,6.81999445,5.81999445,-0.03404105,0.7319371,64.95357,-0.0114525175,0.0163410027,22.3504925,-0.00168168917,0.584887564,3.28216553,80.22547,80.22452,-2.60770321E-08,-1.26375943E-09,1.06977993E-07,-6.68492461E-08,1,0,4,4871.813,331.606934,2135.72925,2,0,0,0,0,1,0,0,0,0,1,0,0,0,Grip,-2.73420324E-06,0.0336755738
342,6.83999443,5.83999443,-0.0342707038,0.7324555,65.40176,-0.0114859287,0.0268799979,22.4156971,-0.00167055987,0.526949763,3.260231,80.46181,80.4609,-2.70083547E-08,1.12140131E-09,-3.24668625E-09,-6.903525E-08,1,0,4,4885.42627,330.462158,2128.3562,2,0,0,0,0,1,0,0,0,0,1,0,0,0,Grip,9.554021E-07,0.0336757973
343,6.85999441,5.85999441,-0.03450103,0.7331579,65.85125,-0.0115191229,0.0359739959,22.4804783,-0.00165971,0.4546999,3.23905945,80.69658,80.695694,-2.60770321E-08,1.15198229E-09,-1.55505608E-09,-6.64626E-08,1,0,4,4899.65771,329.2642,2120.64063,2,0,0,0,0,1,0,0,0,0,1,0,0,0,Grip,-8.47779347E-07,0.0337366
344,6.87999439,5.87999439,-0.0347320251,0.734011948,66.30205,-0.0115521047,0.043449048,22.5448456,-0.00164909288,0.373752624,3.21836472,80.92984,80.9289856,-2.514571E-08,-1.27356392E-09,1.14496306E-08,-6.39059E-08,1,0,4,4914.333,328.0277,2112.677,2,0,0,0,0,1,0,0,0,0,1,0,0,0,Grip,-8.708986E-07,0.03383882
345,6.89999437,5.89999437,-0.03496368,0.7349838,66.75414,-0.0115848817,0.0492303073,22.6088161,-0.00163884833,0.289062977,3.19852829,81.1616058,81.16077,-2.32830644E-08,2.4086686E-09,9.1725525E-08,-5.90046731E-08,1,0,4,4929.294,326.766,2104.55078,2,0,0,0,0,1,0,0,0,0,1,0,0,0,Grip,9.628143E-07,0.03396564
346,6.91999435,5.91999435,-0.0351959951,0.7360395,67.20752,-0.0116174612,0.0533271432,22.6724,-0.00162897632,0.2048418,3.1791687,81.3919449,81.3911057,-2.32830644E-08,-1.24492394E-09,4.380588E-08,-5.88391877E-08,1,0,4,4944.397,325.4913,2096.34131,2,0,0,0,0,1,0,0,0,0,1,0,0,0,Grip,-1.82095346E-06,0.0341024622
347,6.93999434,5.93999434,-0.0354289636,0.737147,67.66218,-0.01164985,0.0558165,22.735611,-0.00161943026,0.124467909,3.160572,81.62087,81.62002,-2.04890966E-08,-3.587878E-09,6.104085E-08,-5.163453E-08,1,0,4,4959.5166,324.214264,2088.11646,2,0,0,0,0,1,0,0,0,0,1,0,0,0,Grip,9.41162455E-07,0.0342366919
348,6.95999432,5.95999432,-0.03566258,0.738276243,68.1180954,-0.011682054,0.0568265766,22.7984619,-0.00161021017,0.05050376,3.14254761,81.84845,81.84757,-1.67638063E-08,-7.2427726E-09,4.569391E-08,-4.21299831E-08,1,0,4,4974.54443,322.944183,2079.93628,2,0,0,0,0,1,0,0,0,0,1,0,0,0,Grip,2.71243562E-06,0.0343587473
349,6.9799943,5.9799943,-0.03589684,0.739400864,68.57529,-0.01171408,0.0565214641,22.8609619,-0.001601316,-0.0152556226,3.125,82.07473,82.07381,-1.49011612E-08,-4.75898254E-09,-5.128651E-08,-3.734652E-08,1,0,4,4989.39551,321.688354,2071.84814,2,0,0,0,0,1,0,0,0,0,1,0,0,0,Grip,5.475536E-06,0.0344611779
350,6.99999428,5.99999428,-0.0361317433,0.7404982,69.03372,-0.0117459325,0.0550868772,22.9231243,-0.00159260817,-0.07172935,3.10812,82.29972,82.2987442,-1.21071935E-08,-3.53334517E-09,7.531586E-09,-3.02617877E-08,1,0,4,5004.00439,320.452484,2063.88843,2,0,0,0,0,1,0,0,0,0,1,0,0,0,Grip,3.59779074E-06,0.0345389247
351,7.01999426,6.01999426,-0.036367286,0.741549253,69.4934,-0.0117776152,0.0527183451,22.9849548,-0.00158413313,-0.118426606,3.091526,82.52349,82.52245,-1.11758709E-08,-3.502796E-09,-2.00646E-08,-2.78588477E-08,1,0,4,5018.32373,319.2407,2056.08374,2,0,0,0,0,1,0,0,0,0,1,0,0,0,Grip,2.671209E-06,0.034588933
352,7.03999424,6.03999424,-0.036603462,0.742539167,69.9543152,-0.011809133,0.0496115647,23.046463,-0.00157589093,-0.155339018,3.075409,82.74606,82.74495,-9.313226E-09,-6.99335256E-09,-3.598063E-08,-2.31537776E-08,1,0,4,5032.32568,318.055481,2048.45044,2,0,0,0,0,1,0,0,0,0,1,0,0,0,Grip,2.64811365E-06,0.03461143
353,7.059994,6.059994,-0.0368402675,0.743456841,70.41646,-0.0118404888,0.04595408,23.1076565,-0.00156778842,-0.182874322,3.05967331,82.96747,82.96627,-6.519258E-09,-8.16552248E-09,3.868239E-09,-1.61647442E-08,1,0,4,5046.014,316.896576,2040.98645,2,0,0,0,0,1,0,0,0,0,1,0,0,0,Grip,5.28697456E-06,0.03460404
354,7.079994,6.079994,-0.0370777,0.7442944,70.87982,-0.0118716862,0.0419196673,23.16854,-0.00155987218,-0.201720566,3.04412842,83.18774,83.18645,-9.313226E-10,-9.368886E-09,-4.428594E-08,-2.30318431E-09,1,0,4,5059.36133,315.766479,2033.708,2,0,0,0,0,1,0,0,0,0,1,0,0,0,Grip,6.173135E-06,0.0345698
355,7.099994,6.099994,-0.0373157524,0.7450477,71.3444061,-0.011902729,0.0376648679,23.2291164,-0.0015521422,-0.212739974,3.02886963,83.40688,83.4055,-1.86264515E-09,-4.55343141E-09,-1.32818442E-07,-4.59436267E-09,1,0,4,5072.398,314.662628,2026.59863,2,0,0,0,0,1,0,0,0,0,1,0,0,0,Grip,7.082878E-06,0.0345110968
356,7.119994,6.119994,-0.037554428,0.7457145,71.8101959,-0.0119336173,0.0333253145,23.2893944,-0.00154441223,-0.216977671,3.013897,83.62494,83.62346,1.86264515E-09,-1.164887E-08,-7.422605E-08,4.582478E-09,1,0,4,5085.14258,313.5836,2019.649,2,0,0,0,0,1,0,0,0,0,1,0,0,0,Grip,3.442394E-06,0.03443104
357,7.139994,6.139994,-0.0377937146,0.7462954,72.27719,-0.0119643537,0.0290162824,23.3493748,-0.001536822,-0.215451613,2.99901962,83.84191,83.84033,3.7252903E-09,-9.153199E-09,-1.06646723E-07,9.141425E-09,1,0,4,5097.623,312.527,2012.84412,2,0,0,0,0,1,0,0,0,0,1,0,0,0,Grip,8.806545E-06,0.0343328454
358,7.159994,6.159994,-0.0380336158,0.7467932,72.74538,-0.0119949393,0.0248315651,23.4090614,-0.00152927823,-0.209235877,2.984333,84.05782,84.0561447,3.7252903E-09,-9.081361E-09,-8.8252456E-08,9.11812847E-09,1,0,4,5109.869,311.4904,2006.16772,2,0,0,0,0,1,0,0,0,0,1,0,0,0,Grip,6.919818E-06,0.03421993
359,7.179994,6.179994,-0.038274128,0.7472112,73.21475,-0.0120253749,0.0208438821,23.4684563,-0.00152178109,-0.199384153,2.96974182,84.27268,84.27092,8.381903E-09,-9.01616648E-09,-6.68677345E-08,2.046389E-08,1,0,4,5121.912,310.471252,1999.60388,2,0,0,0,0,1,0,0,0,0,1,0,0,0,Grip,6.865509E-06,0.0340956822
360,7.199994,6.199994,-0.0385152474,0.7475549,73.68531,-0.0120556625,0.0171084031,23.5275612,-0.00151437707,-0.186773956,2.955246,84.48648,84.4846344,1.11758709E-08,-1.13776117E-08,-9.01009E-08,2.72166716E-08,1,0,4,5133.782,309.46698,1993.13586,2,0,0,0,0,1,0,0,0,0,1,0,0,0,Grip,6.81622168E-06,0.03396306
361,7.219994,6.219994,-0.0387569666,0.7478298,74.15705,-0.0120858029,0.0136621911,23.5863781,-0.00150701962,-0.1723106,2.94084549,84.69925,84.69732,1.3038516E-08,-7.653059E-09,-1.11038354E-07,3.167363E-08,1,0,4,5145.507,308.4753,1986.7489,2,0,0,0,0,1,0,0,0,0,1,0,0,0,Grip,8.601474E-06,0.03382471
362,7.239994,6.239994,-0.03899929,0.7480422,74.62996,-0.012115797,0.0105278678,23.6449089,-0.00149970874,-0.156716168,2.92654037,84.91099,84.90898,1.49011612E-08,-5.20926058E-09,-1.2968006E-07,3.61088581E-08,1,0,4,5157.11133,307.494171,1980.42981,2,0,0,0,0,1,0,0,0,0,1,0,0,0,Grip,5.78571235E-06,0.0336832628
363,7.259994,6.259994,-0.0392422043,0.7481984,75.1040344,-0.0121456441,0.007715163,23.7031536,-0.00149235129,-0.140635252,2.91223526,85.12169,85.11962,1.11758709E-08,-2.79315815E-09,-1.02438683E-07,2.70151137E-08,1,0,4,5168.61865,306.521667,1974.16638,2,0,0,0,0,1,0,0,0,0,1,0,0,0,Grip,3.93820073E-06,0.03354059
364,7.279994,6.279994,-0.03948572,0.748304844,75.57926,-0.0121753467,0.00522377668,23.761116,-0.00148513354,-0.124569312,2.89812088,85.33137,85.32925,1.39698386E-08,-5.11482767E-09,-1.16316755E-07,3.36865327E-08,1,0,4,5180.04736,305.556244,1967.94861,2,0,0,0,0,1,0,0,0,0,1,0,0,0,Grip,2.11162751E-06,0.03339826
365,7.299994,6.299994,-0.0397298262,0.7483677,76.05566,-0.012204905,0.00304498128,23.8187962,-0.00147791579,-0.108939774,2.8840065,85.54003,85.53786,1.3038516E-08,-8.634899E-09,-1.30705018E-07,3.136464E-08,1,0,4,5191.413,304.596619,1961.76807,2,0,0,0,0,1,0,0,0,0,1,0,0,0,Grip,3.86680949E-06,0.033257544
366,7.319994,6.319994,-0.0399745181,0.748393059,76.5331955,-0.012234319,0.00116379187,23.8761959,-0.001470698,-0.0940594748,2.86998749,85.74768,85.74547,1.76951289E-08,-1.09535385E-08,-9.55597557E-08,4.24639772E-08,1,0,4,5202.72656,303.641876,1955.619,2,0,0,0,0,1,0,0,0,0,1,0,0,0,Grip,6.52798326E-06,0.033119373
367,7.339994,6.339994,-0.040219795,0.7483864,77.01188,-0.0122635905,-0.000439587166,23.9333172,-0.00146357343,-0.080168955,2.85606384,85.9543152,85.95208,1.76951289E-08,-9.635655E-09,-1.05352896E-07,4.23626432E-08,1,0,4,5213.99951,302.6912,1949.49609,2,0,0,0,0,1,0,0,0,0,1,0,0,0,Grip,8.280875E-06,0.0329844132
368,7.359994,6.359994,-0.0404656567,0.748352766,77.49169,-0.0122927185,-0.00178754318,23.99016,-0.00145640224,-0.0673978,2.8421402,86.15995,86.15769,2.32830644E-08,-8.398844E-09,-6.791979E-08,5.5608254E-08,1,0,4,5225.237,301.74408,1943.39612,2,0,0,0,0,1,0,0,0,0,1,0,0,0,Grip,7.284555E-06,0.032853134
369,7.379994,6.379994,-0.0407121,0.748296857,77.97264,-0.0123217059,-0.00290440023,24.0467262,-0.00144937076,-0.0558428541,2.828312,86.3645859,86.3623047,2.42143869E-08,-8.277505E-09,-1.216554E-07,5.76965427E-08,1,0,4,5236.444,300.800171,1937.31689,2,0,0,0,0,1,0,0,0,0,1,0,0,0,Grip,6.3495263E-06,0.0327255651
370,7.399994,6.399994,-0.04095912,0.7482227,78.45472,-0.0123505518,-0.00381516735,24.1030159,-0.00144229271,-0.04553836,2.81448364,86.56822,86.56594,2.32830644E-08,-6.988502E-09,-1.29157371E-07,5.534788E-08,1,0,4,5247.622,299.859344,1931.25745,2,0,0,0,0,1,0,0,0,0,1,0,0,0,Grip,6.2577933E-06,0.0326021425
371,7.419994,6.419994,-0.0412067138,0.7481339,78.93791,-0.012379257,-0.004544481,24.1590328,-0.00143526122,-0.0364656933,2.800846,86.77087,86.7685852,2.70083547E-08,-9.429831E-09,-8.500393E-08,6.405467E-08,1,0,4,5258.77441,298.921448,1925.21692,2,0,0,0,0,1,0,0,0,0,1,0,0,0,Grip,5.28330747E-06,0.0324825272
372,7.439994,6.439994,-0.0414548777,0.748033762,79.422226,-0.0124078235,-0.005116099,24.2147789,-0.00142832287,-0.0285808928,2.787304,86.97253,86.9702454,2.98023224E-08,-9.423443E-09,-8.528428E-08,7.051828E-08,1,0,4,5269.899,297.986633,1919.19617,2,0,0,0,0,1,0,0,0,0,1,0,0,0,Grip,7.128952E-06,0.0323665664
373,7.459994,6.459994,-0.04170361,0.747924864,79.9076462,-0.0124362512,-0.00555251352,24.2702541,-0.00142138451,-0.0218207259,2.77376175,87.17322,87.17094,3.259629E-08,-9.56116253E-09,-8.556935E-08,7.695307E-08,1,0,4,5280.99561,297.054932,1913.19543,2,0,0,0,0,1,0,0,0,0,1,0,0,0,Grip,7.124123E-06,0.0322542042
374,7.479994,6.479994,-0.04195291,0.7478095,80.394165,-0.0124645429,-0.0058744587,24.3254585,-0.00141458586,-0.0160972588,2.76021957,87.3729248,87.37065,3.0733645E-08,-8.344299E-09,-2.25718182E-07,7.239108E-08,1,0,4,5292.06348,296.126526,1907.21606,2,0,0,0,0,1,0,0,0,0,1,0,0,0,Grip,7.2282387E-06,0.03214512
375,7.499994,6.499994,-0.04220277,0.7476896,80.88179,-0.0124926977,-0.00610058242,24.3803978,-0.00140774064,-0.0113061862,2.7469635,87.57166,87.5694046,3.44589353E-08,-9.43709555E-09,-1.72223082E-07,8.098283E-08,1,0,4,5303.099,295.20166,1901.2594,2,0,0,0,0,1,0,0,0,0,1,0,0,0,Grip,6.30828936E-06,0.03203878
376,7.519994,6.519994,-0.0424531922,0.7475667,81.37051,-0.0125207165,-0.00624788133,24.43507,-0.001400942,-0.00736494549,2.733612,87.76944,87.7672043,3.44589353E-08,-9.360768E-09,-2.144872E-07,8.080163E-08,1,0,4,5314.10059,294.280548,1895.3269,2,0,0,0,0,1,0,0,0,0,1,0,0,0,Grip,7.134444E-06,0.03193534
377,7.539994,6.539994,-0.0427041724,0.7474421,81.86031,-0.0125486,-0.00633124961,24.48948,-0.00139418989,-0.00416841358,2.72045135,87.96626,87.964035,3.44589353E-08,-9.26700849E-09,-2.0558781E-07,8.062208E-08,1,0,4,5325.067,293.3633,1889.41943,2,0,0,0,0,1,0,0,0,0,1,0,0,0,Grip,7.07674053E-06,0.0318343155
378,7.55999374,6.55999374,-0.0429557078,0.7473168,82.3512,-0.0125763491,-0.00636354228,24.5436249,-0.00138743781,-0.001614634,2.70729065,88.16213,88.159935,3.35276127E-08,-9.223022E-09,-1.968506E-07,7.827003E-08,1,0,4,5335.994,292.450317,1883.53931,2,0,0,0,0,1,0,0,0,0,1,0,0,0,Grip,7.005858E-06,0.0317353979
379,7.57999372,6.57999372,-0.0432077944,0.7471918,82.84316,-0.0126039637,-0.006355797,24.59751,-0.00138073228,0.0003872672,2.69422531,88.35706,88.35487,3.53902578E-08,-8.003427E-09,-1.85501776E-07,8.243736E-08,1,0,4,5346.88135,291.541656,1877.687,2,0,0,0,0,1,0,0,0,0,1,0,0,0,Grip,6.97260475E-06,0.0316382647
380,7.59999371,6.59999371,-0.0434604324,0.747067451,83.3362,-0.0126314461,-0.006317874,24.6511345,-0.00137411989,0.00189614948,2.68125534,88.55105,88.5488739,3.259629E-08,-6.755528E-09,-2.18892282E-07,7.576395E-08,1,0,4,5357.726,290.637573,1871.86426,2,0,0,0,0,1,0,0,0,0,1,0,0,0,Grip,6.050591E-06,0.031543
381,7.61999369,6.61999369,-0.04371361,0.7469443,83.83029,-0.0126587963,-0.006257474,24.7045021,-0.0013675075,0.00301999971,2.66838074,88.7440948,88.74194,3.44589353E-08,-7.894521E-09,-2.02951156E-07,7.992027E-08,1,0,4,5368.527,289.7382,1866.07166,2,0,0,0,0,1,0,0,0,0,1,0,0,0,Grip,5.10717928E-06,0.03144906
382,7.63999367,6.63999367,-0.04396734,0.7468226,84.32546,-0.0126860151,-0.006181091,24.7576122,-0.00136094168,0.00381914433,2.65550613,88.93622,88.93409,2.98023224E-08,-4.22726432E-09,-2.34200414E-07,6.897194E-08,1,0,4,5379.28125,288.843719,1860.31079,2,0,0,0,0,1,0,0,0,0,1,0,0,0,Grip,5.96825748E-06,0.03135643
383,7.65999365,6.65999365,-0.04422161,0.7467027,84.8216858,-0.0127131026,-0.00609382,24.8104687,-0.00135437585,0.004363549,2.64282227,89.12742,89.1253052,2.8871E-08,-1.75553327E-09,-1.6740762E-07,6.66742039E-08,1,0,4,5389.98828,287.954346,1854.58276,2,0,0,0,0,1,0,0,0,0,1,0,0,0,Grip,3.19581181E-06,0.0312650576
384,7.67999363,6.67999363,-0.04447642,0.746584535,85.3189545,-0.01274006,-0.00600027852,24.8630714,-0.0013478566,0.00467707869,2.6301384,89.3176956,89.31561,2.60770321E-08,1.7886852E-09,-1.4749007E-07,6.009443E-08,1,0,4,5400.647,287.070068,1848.88757,2,0,0,0,0,1,0,0,0,0,1,0,0,0,Grip,1.3271831E-06,0.0311745424
385,7.69999361,6.69999361,-0.0447317623,0.7464683,85.817276,-0.0127668874,-0.00590344472,24.9154224,-0.0013413839,0.00484169,2.61755,89.5070648,89.5050049,1.95577741E-08,5.38525358E-09,-1.25728533E-07,4.49761153E-08,1,0,4,5411.256,286.1911,1843.22644,2,0,0,0,0,1,0,0,0,0,1,0,0,0,Grip,-1.35224593E-06,0.0310849436
386,7.71999359,6.71999359,-0.04498764,0.746354043,86.31664,-0.0127935866,-0.00580611965,24.9675217,-0.00133495778,0.00486625358,2.6049614,89.69553,89.69349,1.3038516E-08,5.38595257E-09,-1.50377076E-07,2.99215E-08,1,0,4,5421.815,285.3174,1837.59949,2,0,0,0,0,1,0,0,0,0,1,0,0,0,Grip,-4.07125162E-06,0.030996291
387,7.73999357,6.73999357,-0.045244053,0.7462416,86.81704,-0.0128201554,-0.005710373,25.01937,-0.00132843852,0.004787324,2.592373,89.88309,89.8810654,1.11758709E-08,5.21871768E-10,-8.158866E-08,2.5593847E-08,1,0,4,5432.32471,284.448975,1832.00623,2,0,0,0,0,1,0,0,0,0,1,0,0,0,Grip,-4.07178E-06,0.030903548
388,7.75999355,6.75999355,-0.04550099,0.746131063,87.3184738,-0.0128465993,-0.00561754638,25.0709724,-0.00132219866,0.004641339,2.58016586,90.06974,90.06773,8.381903E-09,-8.18276E-10,-9.687841E-08,1.915587E-08,1,0,4,5442.78174,283.586151,1826.44922,2,0,0,0,0,1,0,0,0,0,1,0,0,0,Grip,-3.9453505E-07,0.0308162179
389,7.77999353,6.77999353,-0.045758456,0.7460224,87.82093,-0.0128729176,-0.005528592,25.12233,-0.00131591223,0.004447717,2.56786346,90.25551,90.2535248,7.450581E-09,1.54642954E-09,-1.14168856E-07,1.69926277E-08,1,0,4,5453.188,282.728729,1820.92688,2,0,0,0,0,1,0,0,0,0,1,0,0,0,Grip,6.18616639E-07,0.0307293423
390,7.79999352,6.79999352,-0.0460164435,0.7459153,88.32442,-0.012899111,-0.005444553,25.1734428,-0.00130967237,0.004201941,2.55565643,90.4404,90.43843,3.7252903E-09,1.52787871E-09,-1.29457177E-07,8.479061E-09,1,0,4,5463.541,281.876923,1815.4408,2,0,0,0,0,1,0,0,0,0,1,0,0,0,Grip,-1.16910064E-06,0.0306431726
391,7.8199935,6.8199935,-0.0462749563,0.7458097,88.82891,-0.01292518,-0.00536551932,25.2243137,-0.00130343251,0.003951695,2.54354477,90.6244049,90.62245,0,1.58572777E-09,-9.587691E-08,0,1,0,4,5473.8457,281.030365,1809.98853,2,0,0,0,0,1,0,0,0,0,1,0,0,0,Grip,-1.15507623E-06,0.03055755
392,7.83999348,6.83999348,-0.0465339869,0.7457055,89.33443,-0.0129511245,-0.00529160956,25.2749424,-0.00129723921,0.003695488,2.531433,90.80754,90.8056,-3.7252903E-09,1.61373725E-09,-1.0886135E-07,-8.445006E-09,1,0,4,5484.09766,280.189423,1804.57239,2,0,0,0,0,1,0,0,0,0,1,0,0,0,Grip,-1.1988102E-06,0.03047226
393,7.85999346,6.85999346,-0.0467935279,0.745602846,89.84094,-0.0129769454,-0.00522280857,25.32533,-0.00129104592,0.00344004948,2.51941681,90.98981,90.9878845,-1.86264515E-09,1.64762426E-09,-7.253727E-08,-4.214101E-09,1,0,4,5494.298,279.354034,1799.192,2,0,0,0,0,1,0,0,0,0,1,0,0,0,Grip,-1.21998528E-06,0.0303876549
394,7.87999344,6.87999344,-0.0470535867,0.7455014,90.348465,-0.0130026443,-0.005159444,25.37548,-0.00128494576,0.0031682197,2.50749588,91.1712,91.1693,-5.58793545E-09,1.69188863E-09,-8.09189E-08,-1.26173143E-08,1,0,4,5504.448,278.524017,1793.84631,2,0,0,0,0,1,0,0,0,0,1,0,0,0,Grip,-1.24560393E-06,0.030303577
395,7.89999342,6.89999342,-0.0473141558,0.745401,90.85698,-0.01302822,-0.00510129333,25.4253941,-0.001278799,0.00290754251,2.49567032,91.35174,91.34986,-9.313226E-09,4.101975E-09,5.843609E-09,-2.098757E-08,1,0,4,5514.54736,277.699524,1788.53613,2,0,0,0,0,1,0,0,0,0,1,0,0,0,Grip,-1.27906776E-06,0.0302199088
396,7.9199934,6.9199934,-0.0475752354,0.7453016,91.3664856,-0.0130536752,-0.00504780468,25.47507,-0.00127274543,0.00267443247,2.48384476,91.53143,91.5295639,-9.313226E-09,1.68417036E-09,-8.825718E-11,-2.09466382E-08,1,0,4,5524.596,276.880432,1783.26074,2,0,0,0,0,1,0,0,0,0,1,0,0,0,Grip,-3.10109317E-06,0.0301367
397,7.93999338,6.93999338,-0.0478368178,0.7452034,91.87699,-0.01307901,-0.004998591,25.5245152,-0.0012667384,0.002460694,2.47221,91.7102661,91.70842,-8.381903E-09,4.27142322E-10,4.51480737E-08,-1.88154523E-08,1,0,4,5534.59473,276.066833,1778.02075,2,0,0,0,0,1,0,0,0,0,1,0,0,0,Grip,-1.27323278E-06,0.0300538912
398,7.95999336,6.95999336,-0.04809891,0.7451059,92.38847,-0.0131042255,-0.00495392038,25.5737267,-0.00126077794,0.002233521,2.460575,91.88827,91.88643,-9.313226E-09,1.59793778E-09,4.367506E-08,-2.08658246E-08,1,0,4,5544.54346,275.258636,1772.81543,2,0,0,0,0,1,0,0,0,0,1,0,0,0,Grip,-3.229196E-07,0.0299717337
399,7.97999334,6.97999334,-0.0483615026,0.7450093,92.90094,-0.0131293237,-0.004913212,25.6227055,-0.0012549106,0.00203542877,2.44894028,92.06543,92.0636139,-1.02445483E-08,2.85481083E-09,-5.07863E-08,-2.29085284E-08,1,0,4,5554.443,274.455841,1767.645,2,0,0,0,0,1,0,0,0,0,1,0,0,0,Grip,-1.20804089E-06,0.02988996
400,7.99999332,6.99999332,-0.0486245938,0.744913459,93.4143753,-0.0131543037,-0.00487633143,25.6714535,-0.0012489967,0.0018440187,2.43740082,92.24175,92.23995,-1.02445483E-08,-1.97443084E-09,-4.967251E-08,-2.286502E-08,1,0,4,5564.293,273.6584,1762.509,2,0,0,0,0,1,0,0,0,0,1,0,0,0,Grip,-2.15823684E-06,0.02980872
401,8.019994,7.019994,-0.0488881841,0.7448182,93.92878,-0.0131791662,-0.00484307,25.7199745,-0.00124312937,0.00166306272,2.426052,92.417244,92.41546,-1.3038516E-08,-8.841299E-10,2.18450258E-09,-2.90460314E-08,1,0,4,5574.095,272.86618,1757.40674,2,0,0,0,0,1,0,0,0,0,1,0,0,0,Grip,1.49266964E-06,0.0297278073
402,8.039994,7.03999424,-0.0491522662,0.7447233,94.44416,-0.0132039133,-0.00481274351,25.7682686,-0.00123735517,0.00151633285,2.41470337,92.59192,92.59015,-1.49011612E-08,2.73514722E-09,-3.89475332E-08,-3.31332437E-08,1,0,4,5583.848,272.0794,1752.33948,2,0,0,0,0,1,0,0,0,0,1,0,0,0,Grip,6.68402151E-07,0.0296474621
403,8.059995,7.0599947,-0.0494168438,0.744629264,94.960495,-0.013228544,-0.00478490442,25.8163376,-0.00123153441,0.00139195472,2.40345,92.76578,92.76402,-1.76951289E-08,2.751025E-09,1.52151127E-08,-3.927246E-08,1,0,4,5593.553,271.2979,1747.30627,2,0,0,0,0,1,0,0,0,0,1,0,0,0,Grip,-2.06777122E-06,0.0295675285
404,8.079995,7.079995,-0.04968191,0.7445357,95.47778,-0.0132530592,-0.0047597466,25.8641815,-0.00122576021,0.00125789084,2.39219666,92.93883,92.93708,-1.76951289E-08,2.72909761E-09,2.30927437E-08,-3.91998078E-08,1,0,4,5603.21,270.5217,1742.307,2,0,0,0,0,1,0,0,0,0,1,0,0,0,Grip,-2.07977473E-06,0.029488001
405,8.099996,7.09999561,-0.0499474667,0.744442463,95.99603,-0.0132774608,-0.004737076,25.9118042,-0.00122007914,0.001133536,2.381134,93.11106,93.10934,-1.95577741E-08,2.68196665E-09,3.52951943E-08,-4.3246466E-08,1,0,4,5612.82031,269.750671,1737.34119,2,0,0,0,0,1,0,0,0,0,1,0,0,0,Grip,-2.06319783E-06,0.0294091254
406,8.119996,7.119996,-0.0502135046,0.7443497,96.51522,-0.0133017488,-0.004716327,25.9592037,-0.00121439807,0.00103744678,2.369976,93.28251,93.2808,-2.23517418E-08,2.68012E-09,-1.36688993E-09,-4.93342824E-08,1,0,4,5622.384,268.9848,1732.40857,2,0,0,0,0,1,0,0,0,0,1,0,0,0,Grip,-2.02756678E-06,0.0293306932
407,8.139997,7.13999653,-0.0504800268,0.7442573,97.0353546,-0.0133259241,-0.004697514,26.0063839,-0.00120876357,0.0009406358,2.35900879,93.45315,93.45145,-2.23517418E-08,2.50491072E-10,1.34163241E-08,-4.92447718E-08,1,0,4,5631.90137,268.22406,1727.509,2,0,0,0,0,1,0,0,0,0,1,0,0,0,Grip,-2.02617048E-06,0.0292525478
408,8.159997,7.159997,-0.0507470332,0.7441652,97.5564346,-0.0133499876,-0.00468013156,26.0533447,-0.00120317563,0.0008691335,2.34804153,93.62299,93.62131,-2.32830644E-08,-9.465059E-10,-1.83665865E-08,-5.1204168E-08,1,0,4,5641.371,267.468628,1722.64355,2,0,0,0,0,1,0,0,0,0,1,0,0,0,Grip,-1.89371249E-07,0.0291749835
409,8.179997,7.17999744,-0.0510145165,0.7440734,98.0784454,-0.01337394,-0.00466410443,26.1000881,-0.00119763426,0.0008013565,2.33716965,93.79205,93.79038,-2.04890966E-08,1.40872453E-10,-4.75764246E-08,-4.497896E-08,1,0,4,5650.79541,266.718231,1717.81067,2,0,0,0,0,1,0,0,0,0,1,0,0,0,Grip,7.15558429E-07,0.0290978979
410,8.199998,7.199998,-0.05128248,0.743981957,98.60139,-0.0133977821,-0.00464912,26.146616,-0.0011920929,0.0007492257,2.32639313,93.96033,93.95867,-2.32830644E-08,1.35736711E-09,-2.83279071E-08,-5.102149E-08,1,0,4,5660.174,265.972961,1713.01062,2,0,0,0,0,1,0,0,0,0,1,0,0,0,Grip,-1.0649957E-07,0.02902113
411,8.219998,7.21999836,-0.0515509136,0.743890762,99.12525,-0.0134215141,-0.004635148,26.19293,-0.00118659809,0.000698585063,2.315712,94.12783,94.12619,-2.42143869E-08,1.064285E-10,-6.77714551E-09,-5.29685167E-08,1,0,4,5669.507,265.232758,1708.24341,2,0,0,0,0,1,0,0,0,0,1,0,0,0,Grip,-1.02616946E-06,0.0289450288
412,8.239999,7.239999,-0.05181982,0.7437998,99.65005,-0.0134451371,-0.00462204032,26.23903,-0.00118114986,0.000655395,2.30503082,94.29456,94.29293,-2.70083547E-08,2.51637222E-09,-3.1791263E-08,-5.897646E-08,1,0,4,5678.796,264.497559,1703.5083,2,0,0,0,0,1,0,0,0,0,1,0,0,0,Grip,-8.045994E-08,0.02886923
413,8.259999,7.25999928,-0.0520892,0.7437091,100.175751,-0.013468652,-0.00460952846,26.28492,-0.00117574818,0.000625592656,2.294445,94.4605255,94.45891,-2.60770321E-08,-1.0977238E-09,-5.42360539E-08,-5.6843362E-08,1,0,4,5688.04,263.767334,1698.80518,2,0,0,0,0,1,0,0,0,0,1,0,0,0,Grip,-1.90237733E-06,0.0287940335
414,8.28,7.27999973,-0.0523590446,0.7436186,100.70237,-0.013492059,-0.004597612,26.3305988,-0.00117034651,0.0005958136,2.28395462,94.6257248,94.62412,-2.04890966E-08,-1.65252647E-08,-2.741613E-08,-4.45851569E-08,1,0,4,5697.24072,263.042053,1694.134,2,0,0,0,0,1,0,0,0,0,1,0,0,0,Grip,8.298792E-07,0.0287192352
415,8.3,7.3,-0.0526293553,0.743528247,101.2299,-0.01351536,-0.00458605355,26.3760681,-0.001165038,0.0005779322,2.2734642,94.79017,94.7885742,-1.02445483E-08,-1.84445277E-08,-9.320401E-08,-2.22541434E-08,1,0,4,5706.39648,262.321777,1689.49512,2,0,0,0,0,1,0,0,0,0,1,0,0,0,Grip,1.24930993E-05,0.0286448
416,8.320001,7.32000065,-0.05290013,0.743438244,101.758339,-0.0135385524,-0.00457458431,26.42133,-0.0011596363,0.0005734619,2.26306915,94.95386,94.9522858,4.656613E-09,-2.66950853E-08,-1.67387277E-08,1.009819E-08,1,0,4,5715.509,261.6064,1684.8877,2,0,0,0,0,1,0,0,0,0,1,0,0,0,Grip,1.39440626E-05,0.0285709538
417,8.340001,7.340001,-0.05317137,0.74334836,102.287674,-0.0135616409,-0.00456344243,26.4663849,-0.0011544209,0.0005570939,2.25276947,95.1168,95.1152344,1.11758709E-08,-2.30299033E-08,-7.83383953E-08,2.4194394E-08,1,0,4,5724.57861,260.8958,1680.311,2,0,0,0,0,1,0,0,0,0,1,0,0,0,Grip,2.01814837E-05,0.0284974575
418,8.360002,7.36000156,-0.0534430668,0.7432587,102.817909,-0.013584625,-0.00455236062,26.5112343,-0.00114920549,0.000554090366,2.24246979,95.279,95.27744,2.23517418E-08,-2.04611741E-08,-1.39421942E-07,4.83069229E-08,1,0,4,5733.605,260.1902,1675.76648,2,0,0,0,0,1,0,0,0,0,1,0,0,0,Grip,1.74106062E-05,0.0284244847
419,8.380002,7.380002,-0.05371522,0.7431693,103.349037,-0.0136075048,-0.00454123365,26.5558815,-0.00114399008,0.0005563488,2.23236084,95.44045,95.43892,3.259629E-08,-2.03710311E-08,-1.02911507E-07,7.032914E-08,1,0,4,5742.58838,259.48938,1671.25293,2,0,0,0,0,1,0,0,0,0,1,0,0,0,Grip,1.54686477E-05,0.0283518843
420,8.40000248,7.40000248,-0.05398783,0.743080139,103.881058,-0.0136302812,-0.00453009224,26.6003246,-0.00113882124,0.0005570706,2.22215652,95.60118,95.59966,3.81842256E-08,-1.91080556E-08,-1.621027E-07,8.224791E-08,1,0,4,5751.5293,258.793365,1666.77014,2,0,0,0,0,1,0,0,0,0,1,0,0,0,Grip,1.54005E-05,0.0282797925
421,8.420003,7.420003,-0.0542609,0.7429911,104.413956,-0.0136529561,-0.00451901043,26.6445675,-0.00113374554,0.000554090366,2.212143,95.76118,95.75967,4.47034836E-08,-1.77812325E-08,-2.1656966E-07,9.613033E-08,1,0,4,5760.42969,258.10202,1662.3175,2,0,0,0,0,1,0,0,0,0,1,0,0,0,Grip,1.444569E-05,0.0282082558
422,8.440003,7.4400034,-0.0545344129,0.7429023,104.947739,-0.0136755295,-0.00450771954,26.68861,-0.00112866983,0.000564544462,2.20212936,95.9204559,95.91895,4.84287739E-08,-1.8764208E-08,-2.71172951E-07,1.03969313E-07,1,0,4,5769.288,257.415466,1657.89575,2,0,0,0,0,1,0,0,0,0,1,0,0,0,Grip,1.34426109E-05,0.0281369742
423,8.460004,7.460004,-0.05480838,0.742813766,105.4824,-0.013698,-0.004496176,26.7324524,-0.00112354755,0.000577187166,2.19211578,96.07901,96.0775146,5.21540642E-08,-1.498358E-08,-2.79217119E-07,1.11783315E-07,1,0,4,5778.10449,256.7336,1653.50427,2,0,0,0,0,1,0,0,0,0,1,0,0,0,Grip,1.41857408E-05,0.0280662365
424,8.480004,7.48000431,-0.05508279,0.7427254,106.017929,-0.01372037,-0.004484513,26.7760983,-0.00111847185,0.00058314763,2.182293,96.23684,96.23537,5.401671E-08,-1.24213928E-08,-2.36353415E-07,1.15586843E-07,1,0,4,5786.87939,256.0565,1649.14319,2,0,0,0,0,1,0,0,0,0,1,0,0,0,Grip,1.13275864E-05,0.02799604
425,8.500005,7.500005,-0.0553576462,0.7426373,106.554329,-0.0137426378,-0.00447259657,26.8195477,-0.00111339614,0.0005958136,2.17247,96.39397,96.3925,5.029142E-08,7.768094E-10,-1.940001E-07,1.07440968E-07,1,0,4,5795.615,255.383881,1644.81128,2,0,0,0,0,1,0,0,0,0,1,0,0,0,Grip,9.390573E-06,0.0279261321
426,8.520005,7.520005,-0.0556329452,0.7425494,107.0916,-0.0137648061,-0.00446042744,26.8628025,-0.00110841356,0.0006084563,2.16274261,96.5503845,96.54893,4.56348062E-08,7.55810858E-10,-1.959115E-07,9.733574E-08,1,0,4,5804.309,254.716,1640.50977,2,0,0,0,0,1,0,0,0,0,1,0,0,0,Grip,-5.872679E-07,0.0278567541
427,8.540006,7.54000568,-0.0559086874,0.742461741,107.629723,-0.0137868738,-0.00444828765,26.9058647,-0.00110338442,0.0006069895,2.1531105,96.7061,96.70466,4.749745E-08,-2.85508928E-09,-1.02138621E-07,1.01146469E-07,1,0,4,5812.963,254.0527,1636.23767,2,0,0,0,0,1,0,0,0,0,1,0,0,0,Grip,-5.71393E-07,0.02778785
428,8.560006,7.560006,-0.05618487,0.7423743,108.1687,-0.0138088437,-0.004435731,26.9487343,-0.001098495,0.000627827831,2.14347839,96.86112,96.8596954,3.44589353E-08,1.49899027E-08,-1.49064476E-07,7.3264026E-08,1,0,4,5821.57764,253.39389,1631.99463,2,0,0,0,0,1,0,0,0,0,1,0,0,0,Grip,2.15844739E-06,0.0277192686
429,8.580007,7.5800066,-0.05646149,0.742287159,108.708534,-0.0138307139,-0.004422966,26.9914131,-0.0010935124,0.000638258643,2.13394165,97.01546,97.01403,2.8871E-08,1.24443345E-08,-5.36112772E-08,6.12863147E-08,1,0,4,5830.15234,252.739624,1627.78076,2,0,0,0,0,1,0,0,0,0,1,0,0,0,Grip,-1.13323658E-05,0.0276511051
430,8.600007,7.600007,-0.0567385443,0.7422004,109.249222,-0.0138524864,-0.00440997723,27.0339012,-0.001088623,0.0006494345,2.124405,97.1691,97.1676941,2.142042E-08,8.791821E-09,-5.141064E-08,4.53990161E-08,1,0,4,5838.6875,252.08989,1623.59619,2,0,0,0,0,1,0,0,0,0,1,0,0,0,Grip,-9.407917E-06,0.0275834948
431,8.62000751,7.62000751,-0.05701603,0.7421137,109.790756,-0.013874162,-0.00439700345,27.0762,-0.00108378008,0.000648689456,2.11496353,97.32205,97.32066,1.76951289E-08,6.322856E-09,-4.66580445E-08,3.744494E-08,1,0,4,5847.18457,251.44458,1619.44,2,0,0,0,0,1,0,0,0,0,1,0,0,0,Grip,-6.64661638E-06,0.0275164377
432,8.640008,7.640008,-0.0572939478,0.7420273,110.33313,-0.0138957407,-0.0043836874,27.1183128,-0.0010789372,0.0006658025,2.10561752,97.4743347,97.47295,1.3038516E-08,1.21641559E-08,6.84162149E-09,2.75481575E-08,1,0,4,5855.64355,250.803635,1615.312,2,0,0,0,0,1,0,0,0,0,1,0,0,0,Grip,-4.780079E-06,0.0274496377
433,8.660008,7.66000843,-0.0575722978,0.741941154,110.876343,-0.0139172245,-0.004370177,27.1602383,-0.00107418746,0.000675511546,2.09627151,97.62594,97.6245651,5.58793545E-09,1.20064962E-08,-3.29097141E-08,1.17881278E-08,1,0,4,5864.063,250.16716,1611.21277,2,0,0,0,0,1,0,0,0,0,1,0,0,0,Grip,-9.196102E-06,0.0273832828
434,8.680009,7.680009,-0.0578510724,0.741855264,111.420387,-0.0139386132,-0.004356563,27.2019787,-0.00106943771,0.00068070367,2.08702087,97.77687,97.77551,-9.313226E-10,9.494273E-09,-2.37893154E-08,-1.961673E-09,1,0,4,5872.445,249.535049,1607.1416,2,0,0,0,0,1,0,0,0,0,1,0,0,0,Grip,-9.076911E-06,0.0273173228
435,8.700009,7.70000935,-0.0581302755,0.7417697,111.965271,-0.0139599079,-0.00434285961,27.2435341,-0.00106473453,0.000685174,2.07777023,97.92713,97.92578,-5.58793545E-09,8.203223E-09,-6.0988846E-08,-1.17520829E-08,1,0,4,5880.78857,248.907288,1603.09839,2,0,0,0,0,1,0,0,0,0,1,0,0,0,Grip,-7.17767E-06,0.0272518955
436,8.72001,7.72001,-0.0584099032,0.741684258,112.510979,-0.0139811086,-0.004329007,27.2849083,-0.00106003135,0.0006926246,2.06871033,98.07674,98.07539,-1.02445483E-08,6.98637859E-09,-5.719203E-10,-2.15128111E-08,1,0,4,5889.09473,248.283844,1599.08313,2,0,0,0,0,1,0,0,0,0,1,0,0,0,Grip,-6.20163655E-06,0.0271868035
437,8.74001,7.74001026,-0.0586899519,0.7415993,113.05751,-0.014002216,-0.0043148417,27.3261013,-0.00105537474,0.0007082708,2.05965042,98.22568,98.22435,-1.11758709E-08,6.95156555E-09,1.35218228E-08,-2.34331416E-08,1,0,4,5897.363,247.664749,1595.09583,2,0,0,0,0,1,0,0,0,0,1,0,0,0,Grip,-5.281702E-06,0.0271220915
438,8.760011,7.76001072,-0.05897042,0.741514564,113.604858,-0.01402323,-0.00430066139,27.3671112,-0.00105071813,0.0007090159,2.05049515,98.37398,98.37266,-1.49011612E-08,4.45771953E-09,-2.13700773E-08,-3.11973665E-08,1,0,4,5905.594,247.049881,1591.13574,2,0,0,0,0,1,0,0,0,0,1,0,0,0,Grip,-5.25538326E-06,0.0270578489
439,8.780011,7.780011,-0.05925131,0.74143,114.153023,-0.0140441535,-0.004286288,27.4079437,-0.00104615465,0.000718678348,2.041626,98.5216141,98.5203,-1.76951289E-08,4.43454962E-09,-2.79011259E-09,-3.69916755E-08,1,0,4,5913.789,246.439255,1587.203,2,0,0,0,0,1,0,0,0,0,1,0,0,0,Grip,-3.37003576E-06,0.0269940272
